time Ax Ay Az Gx Gy Gz
20 -2.74918383 9.108261270000002 -0.7289811 -0.209743 0.061702 0.202486
40 -2.34293211 9.44416548 -1.1244614400000001 -0.219565 0.07215 0.262225
60 -1.9176587999999999 9.600438780000001 -0.9749178000000001 -0.236639 0.13162100000000002 0.322918
80 -1.58909247 9.42635052 -0.7352693100000001 -0.267602 0.15505 0.351514
100 -1.66708197 9.51601392 -0.8747773200000001 -0.30795100000000003 0.186132 0.339441
120 -2.3224194000000002 9.76764042 -1.37922714 -0.323662 0.220399 0.308309
140 -2.51970831 9.64983213 -1.35438822 -0.289129 0.29277800000000004 0.293503
160 -2.36089422 9.577385280000001 -1.3985430300000004 -0.22688200000000006 0.360794 0.279963
180 -1.76468166 9.5728923 -1.36261881 -0.17738900000000002 0.4522390000000001 0.279124
200 -1.31187168 9.74174202 -1.15005573 -0.137484 0.559646 0.291015
220 -0.83540979 9.815238540000001 -1.0945213200000001 -0.112266 0.6917300000000001 0.271794
240 -0.6800390100000001 9.955796220000002 -1.02731301 -0.049841 0.77688 0.235802
260 -0.65279664 9.850417199999999 -0.65683836 -0.001415 0.8481700000000001 0.214684
280 -0.76311009 9.65851398 -0.6719555700000001 0.010771 0.982216 0.248781
300 -0.8647515000000001 9.671835960000001 -0.52824888 0.008915000000000001 1.070534 0.27536
320 -0.92882061 9.86283666 -0.6245046000000001 -0.015469 1.103647 0.274079
340 -0.7683486300000001 10.10114118 -0.48124917000000006 -0.040748 1.176174 0.273809
360 -0.68497344 10.07121087 -0.23920704 -0.056698 1.125349 0.210738
380 -0.52420716 10.0875249 -0.18142614 -0.050038 1.148899 0.176571
400 -0.5089428 10.051443720000002 -0.20387142 -0.09265 1.159713 0.173055
420 -0.24473988000000002 10.25862111 -0.32512302000000004 -0.065214 1.091444 0.172266
440 0.14100894 10.03692492 -0.17603064 -0.055708000000000014 1.057373 0.159557
460 0.52271604 10.07929431 -0.13845833999999996 -0.038504 1.100934 0.173509
480 0.5342427900000001 9.999352620000002 -0.10164141000000002 -0.02031 1.114715 0.17468599999999998
500 0.2956341600000001 9.98214588 -0.33291216 -0.02352 1.0595450000000002 0.121323
520 0.08951625 9.98453952 -0.30371760000000003 -0.028557 1.053462 0.048657
540 -0.35955612 9.97256151 -0.54112941 -0.024002 1.130095 0.06140900000000001
560 0.041309910000000005 9.752366250000001 -0.22467843 -0.032781 1.091711 0.07742
580 0.35161983 9.80026848 -0.39577464 -0.041489 1.060819 0.084877
600 0.53244756 9.90984618 -0.36449055 -0.048168 0.975714 0.061438
620 0.5945644800000001 10.114021710000001 -0.31658832000000003 -0.055348 1.006764 0.028234
640 0.5590915200000001 9.94845834 -0.16780005000000003 -0.046818 0.990815 0.013358000000000002
660 0.32646699000000007 9.84742515 -0.21061089 -0.038164 1.0089290000000002 0.00485
680 0.15926535 9.993819779999999 -0.25387299 -0.009061 1.084424 0.01457
700 0.13905675 9.97346403 -0.08891784 0.010214 1.075933 -0.009853
720 0.7518874500000001 10.007593020000002 -0.15507648000000004 0.040245 1.092945 -0.027825
740 0.8244814500000002 9.99351567 -0.055534410000000006 0.059453 1.103492 -0.01809
760 0.73362123 9.82542132 -0.3010198500000001 0.060184 1.062872 0.01615
780 0.52106796 9.91313253 -0.14115609 0.102327 0.973125 0.045401
800 0.38110869 10.08078543 0.026192700000000003 0.148919 0.8718549999999999 0.022356
820 0.44412813 9.990974880000001 -0.07514459999999999 0.172318 0.7910729999999999 -0.042539
840 0.42825555000000004 9.894719160000001 -0.04715667 0.163251 0.617686 -0.097928
860 0.67165146 9.771525180000001 -0.10972485000000001 0.161481 0.7060810000000001 -0.090576
880 0.7488954 9.858353490000002 -0.27033417000000004 0.124026 0.66473 -0.106808
900 1.1782006200000001 9.863287920000001 -0.29249496 0.118457 0.604062 -0.115315
920 1.64178198 9.926307360000001 -0.43963515000000003 0.120241 0.512498 -0.129072
940 1.9109291400000001 9.91269108 -0.56313324 0.122379 0.493396 -0.149329
960 1.86032916 9.8418825 -0.6813829800000001 0.170388 0.4592770000000001 -0.183133
980 1.7232147899999999 9.793087560000002 -0.8408052900000001 0.178875 0.426313 -0.205464
1000 1.6290584099999998 9.97734879 -0.43289568 0.169726 0.29635500000000004 -0.198952
1020 1.03570056 9.77362452 -0.70024761 0.221672 0.20887600000000006 -0.212364
1040 1.96586514 9.87421626 -0.32497587 0.271484 0.125648 -0.221523
1060 1.41380739 9.84307932 -0.15701886 0.310517 0.029628 -0.218991
1080 1.34839431 9.9284067 -0.47391129 0.290939 -0.034297 -0.199818
1100 1.2025980900000002 9.99351567 -0.35535744 0.274543 -0.11841 -0.19662
1120 1.16951877 9.83454462 -0.24114942 0.301037 -0.178077 -0.216655
1140 1.17161811 9.853860509999999 -0.22378572 0.3033 -0.202373 -0.270019
1160 1.1512525500000002 9.676181790000001 -0.09430353000000001 0.30231 -0.204423 -0.28925100000000004
1180 1.57263129 9.910287630000001 -0.29369178 0.33018800000000004 -0.183176 -0.298697
1200 1.4043799799999999 9.92465928 -0.22558095000000003 0.362256 -0.162012 -0.291023
1220 1.39719906 9.7926363 -0.07663572 0.363654 -0.105489 -0.308177
1240 1.2169697400000001 9.80909748 -0.23486121000000001 0.338982 -0.115071 -0.288041
1260 0.9624983400000001 9.775871010000001 -0.38993769 0.345033 -0.18437 -0.279364
1280 0.66536325 9.897416909999999 -0.63079281 0.390438 -0.247547 -0.237305
1300 0.09160578000000001 9.79069392 -0.57105972 0.4164100000000001 -0.30874 -0.141974
1320 -0.24923286000000003 9.98423541 -0.49442400000000003 0.437874 -0.415754 -0.039138
1340 0.041309910000000005 9.92197134 -0.6276438 0.473133 -0.357475 0.008036
1360 -0.22588506000000003 9.87421626 -0.7021899899999999 0.470182 -0.342388 -0.032597
1380 -0.38694564000000004 9.88289811 -0.85547124 0.437522 -0.257025 -0.039343
1400 -0.37182843 9.847268190000001 -1.1078433 0.411653 -0.27839 -0.002109
1420 -0.58962024 9.82886463 -1.42399017 0.280453 -0.315046 -0.045707
1440 -0.63707121 9.80820477 -1.6470205200000003 0.176725 -0.131455 -0.046667
1460 -0.5348412000000001 9.69833277 -1.59538068 0.108175 0.124136 0.031575
1480 -0.48902850000000003 9.731412090000001 -2.04324642 0.102352 0.021863 0.038075
1500 -0.6435163800000001 9.917625509999999 -2.7268758900000005 0.039779 -0.179068 -0.009107
1520 -0.8177517900000001 9.85176117 -2.4927700500000003 -0.031262 -0.341713 -0.032895
1540 -0.91954035 9.83963601 -2.22572223 -0.101953 -0.427656 -0.057848
1560 -0.81056106 9.85759812 -1.9278415800000002 -0.15926700000000002 -0.383689 -0.080737
1580 -1.10231046 9.66240855 -1.9758909600000003 -0.155649 -0.276168 -0.06589500000000001
1600 -1.28597328 9.636961410000001 -2.0474451 -0.160854 -0.246326 -0.064901
1620 -1.1075490000000001 9.75731049 -2.2552110900000004 -0.14272200000000002 -0.247455 -0.064773
1640 -0.5462109900000001 9.36871677 -2.4231582900000004 -0.115926 -0.225156 -0.06995599999999999
1660 -0.74739447 9.317969640000001 -2.54725479 -0.08567000000000001 -0.146406 -0.07625499999999999
1680 -1.4009366699999999 9.357935580000001 -2.74514211 -0.038455 -0.104948 -0.095206
1700 -1.7305526699999998 9.16513965 -2.5692586200000003 -0.029819 -0.13884000000000002 -0.15171800000000002
1720 -1.60376823 9.080420490000002 -2.54410578 -0.025696 -0.22068 -0.201791
1740 -1.55990772 9.246572460000001 -2.37106719 0.002124 -0.20903400000000005 -0.208021
1760 -1.22804523 9.0058743 -2.336791050000001 0.00456 -0.109038 -0.175017
1780 -0.8087658299999999 9.22815909 -2.26044963 -0.013399 -0.034547 -0.139986
1800 -0.80113365 9.593405010000001 -2.45714013 -0.014351 0.012243 -0.11868900000000003
1820 -0.68497344 9.656414640000001 -2.66834943 -0.036410000000000005 0.103874 -0.104005
1840 -0.80173206 9.76180347 -2.5346783700000004 -0.041706 0.055121 -0.161663
1860 -1.34001657 9.799670070000001 -2.3423337 0.016111 0.042371 -0.219995
1880 -1.7784549 9.74607804 -2.48423535 0.063307 0.073202 -0.245343
1900 -1.99714923 9.89712261 -2.6499360600000004 0.077123 0.056129999999999985 -0.250565
1920 -1.77905331 9.596691360000001 -2.7508319100000005 0.060125 0.140073 -0.182425
1940 -1.45781505 9.552830850000001 -2.5596742500000005 0.038769 0.16877799999999998 -0.149497
1960 -1.21876497 9.4226031 -2.30895027 0.01747 0.199656 -0.127252
1980 -1.2310372800000002 9.26049285 -2.11285818 0.011126 0.233681 -0.105976
2000 -1.4003382600000003 9.44745183 -1.8015084000000001 -0.000446 0.30071 -0.075164
2020 -1.40213349 9.835594290000001 -1.62831285 -0.008905 0.330516 -0.062442999999999985
2040 -1.8965574900000002 9.96792138 -2.1468400200000004 -0.003633 0.32832 -0.050653
2060 -1.5846093 10.058781600000001 -2.2788630000000003 0.014461000000000003 0.33670700000000003 -0.032377
2080 -1.4748844500000002 10.024054200000002 -2.2788630000000003 0.026153 0.35042 -0.008812
2100 -1.3690541699999998 9.96418377 -2.2350024900000003 0.030406 0.370552 0.014693
2120 -1.34449974 9.775566900000001 -1.96570818 0.036951 0.402487 0.014697
2140 -1.75330206 9.6218442 -1.89760716 0.049806 0.396123 -0.003364
2160 -1.81273104 9.52634385 -1.7630335800000003 0.087161 0.380091 -0.022311
2180 -1.6058577600000001 9.46736613 -1.73325042 0.145906 0.396921 -0.019786
2200 -1.3847697899999998 9.358838100000002 -1.57113036 0.182471 0.472386 -0.008945
2220 -1.43327043 9.537419340000001 -1.53685422 0.188151 0.5533100000000001 -0.004736
2240 -1.4274334800000001 9.3298005 -1.6833960000000001 0.165991 0.593924 -0.01883
2260 -1.4024376 9.23489856 -1.8366772500000002 0.13275499999999998 0.538722 -0.038219
2280 -1.44838764 9.16932852 -1.8040491900000002 0.114741 0.370304 0.003532
2300 -1.50930774 9.274864500000001 -1.77037146 0.07354400000000001 0.28286 0.062108
2320 -1.64807019 9.584114940000001 -1.7437275 -0.034142 0.376664 0.140284
2340 -1.82964348 9.811795230000001 -1.84401513 -0.145798 0.476053 0.15753699999999998
2360 -1.82470905 9.80445735 -2.1127110300000003 -0.180799 0.460444 0.095355
2380 -1.55691567 9.608963670000001 -2.35819647 -0.12859 0.343491 -0.006679000000000001
2400 -1.37159496 9.36333108 -2.42929935 -0.064985 0.193304 -0.065863
2420 -1.32863697 9.346565790000001 -2.31163821 -0.038539 0.115557 -0.093353
2440 -1.40662647 9.39266298 -2.18590344 -0.048155 0.113456 -0.092349
2460 -1.3989942900000003 9.7929306 -2.29263624 -0.05868 0.158183 -0.079661
2480 -0.92358207 9.88155414 -2.77432686 -0.07032000000000001 0.195445 -0.06376699999999999
2500 -0.40565331 9.755368110000001 -3.0075498000000005 -0.066268 0.16128599999999998 -0.049808
2520 -0.1963962 9.68501079 -2.5854255000000004 -0.046247 0.114309 -0.041062
2540 -0.14864112000000002 9.57408912 -2.02738365 -0.027192 0.090768 -0.031285
2560 -0.8183502000000001 9.38562921 -1.78548867 -0.010113 0.117242 -0.00663
2580 -1.48850073 9.34446645 -2.18365695 0.010282 0.174576 0.023349
2600 -1.61334279 9.409428270000001 -2.66849658 0.023037 0.179794 0.039455
2620 -1.555866 9.69354549 -2.85666219 0.029102 0.106264 0.04066
2640 -1.3102235999999998 9.542353770000002 -2.7244822500000003 0.026676 0.035985 0.035392
2660 -1.12027257 9.40404258 -2.49157323 0.0052380000000000005 0.007323 0.028869
2680 -1.09033245 9.31976487 -2.2053664800000004 -0.016069999999999997 0.007423000000000002 0.022311
2700 -1.07686332 9.1997199 -2.1080709 -0.027705 0.019225 0.011532
2720 -1.01713023 9.330251760000001 -2.14234704 -0.034087 0.016081 0.004014
2740 -0.9196875 9.588313620000001 -2.25535824 -0.027762 -0.002046 0.003013
2760 -0.73167885 9.801171 -2.50997679 -0.020381 -0.017003 0.007356999999999998
2780 -0.69979635 9.96986376 -2.76564501 -0.022567 -0.019165 0.016958
2800 -0.77284161 10.01687328 -2.8777635000000004 -0.03005 -0.00748 0.031846
2820 -0.9993250800000001 9.859697460000001 -2.83121505 -0.02362 0.002072 0.035084
2840 -1.09003815 9.60343083 -2.59200801 -0.01618 -0.0192 0.020208
2860 -1.10380158 9.55163403 -2.33140536 0.000904 -0.012881 0.023524
2880 -1.0548594900000001 9.52798212 -2.23949547 0.010635 0.027519 0.035289999999999995
2900 -1.04197896 9.4977477 -2.29891464 0.007554000000000002 0.059467 0.040569
2920 -1.1229605100000002 9.47904003 -2.37376494 0.002177 0.053081 0.043744
2940 -1.1687732100000001 9.528580530000001 -2.35819647 -0.00321 0.03926 0.041588
2960 -1.21711689 9.45628083 -2.2656881700000002 -0.012826 0.01806 0.023388
2980 -1.24555608 9.49056678 -2.16674451 -0.013903 0.0032020000000000004 0.010581
3000 -1.2338821800000002 9.46856295 -2.06839926 -0.008535 0.013822999999999998 0.01381
3020 -1.21726404 9.58666554 -2.07887634 -0.005214 0.043626 0.016999
3040 -1.34166465 9.839037600000001 -2.16420372 -0.00521 0.044692 0.016998
3060 -1.2434665500000002 9.70192323 -2.30041557 -0.007348 0.042573 0.015916999999999997
3080 -1.05335856 9.57379482 -2.3324452200000003 -0.009468 0.044715 0.014832
3100 -1.04826717 9.581122890000001 -2.12467923 -0.010539 0.041531 0.012692
3120 -1.1298471300000001 9.6136038 -2.0926495800000002 -0.009434 0.048989 0.011622
3140 -1.17894618 9.565112970000001 -2.1080709 0.000221 0.06067300000000001 0.011674
3160 -1.25918217 9.63261558 -2.10926772 0.007751000000000002 0.074496 0.011709
3180 -1.2925655999999999 9.71674614 -2.16689166 0.01098 0.080876 0.011724
3200 -1.10231046 9.616007250000001 -2.34097992 0.014205 0.087252 0.012806
3220 -1.00097316 9.6047748 -2.31464007 0.017439 0.094698 0.012819
3240 -1.06189326 9.633213990000002 -2.18291139 0.018539 0.095785 0.006416
3260 -1.10979549 9.553134960000001 -2.13411645 0.019659 0.100072 -0.001059
3280 -1.16951877 9.50374161 -2.123629560000001 0.020774 0.103294 -0.008533
3300 -1.1921210100000001 9.57109707 -2.17033497 0.016564 0.11078699999999997 -0.013913
3320 -1.20678696 9.64249425 -2.23619931 0.008048 0.115078 -0.013978
3340 -1.19422035 9.6859035 -2.29398021 0.0016710000000000002 0.121488 -0.012963
3360 -1.1394315000000002 9.69474231 -2.3141888100000005 -0.005744 0.142781 -0.003428
3380 -1.02746016 9.672287220000001 -2.30924457 -0.013145 0.163025 0.001836
3400 -1.0041123600000001 9.620490420000001 -2.28020697 -0.017394 0.17260599999999998 0.007135
3420 -1.00800693 9.59984037 -2.2213764 -0.01315 0.167265 0.0071709999999999986
3440 -1.0741655700000001 9.656571600000001 -2.22242607 -0.006759 0.159807 0.001884
3460 -1.10559681 9.661506030000002 -2.25550539 0.002824 0.151269 -0.002311
3480 -1.0699767 9.60941493 -2.24278182 0.011373 0.152313 -0.004389
3500 -1.04078214 9.56451456 -2.22722316 0.014603 0.157632 -0.005441
3520 -1.043784 9.56451456 -2.25760473 0.008245 0.161937 -0.010832
3540 -0.9777627 9.51331617 -2.2845528000000006 0.0007570000000000001 0.156641 -0.011946
3560 -0.91055439 9.49131234 -2.2418891100000002 -0.002472 0.152382 -0.009827
3580 -0.95097159 9.55193814 -2.24308593 -0.00251 0.14916500000000002 -0.004482
3600 -0.95561172 9.61136712 -2.2532687100000004 -0.0046630000000000005 0.14915599999999998 -0.000224
3620 -0.92507319 9.62632737 -2.2820022 -0.004673 0.149147 0.001913
3640 -0.9172938600000001 9.59759388 -2.32915887 0.000594 0.138459 0.006236
3660 -0.9261228600000001 9.60462765 -2.37151845 0.007951999999999999 0.116054 0.008453
3680 -0.91010313 9.59579865 -2.40474492 0.014248 0.092595 0.008527
3700 -0.8963397000000001 9.58905918 -2.41507485 0.018415 0.067027 0.005384000000000001
3720 -0.91803942 9.604176390000001 -2.41927353 0.014071 0.048937 0.004308
3740 -0.92523015 9.60133149 -2.41927353 0.011898 0.037239 0.001104
3760 -0.85801203 9.55342926 -2.4369315300000003 0.006506999999999999 0.024474 0.001082
3780 -0.8060778900000001 9.51376743 -2.4400805400000003 0.00111 0.012767 0.003196
3800 -0.79170624 9.56316078 -2.45744424 -0.003229 -0.001075 0.00532
3820 -0.79469829 9.58681269 -2.47929111 -0.001144 -0.012796 0.004281
3840 -0.7774817399999999 9.57843495 -2.49157323 -0.004372999999999999 -0.02236 0.001066
3860 -0.75846996 9.540862650000001 -2.50279587 -0.005488 -0.033009 0.001072
3880 -0.73407249 9.573637860000002 -2.5035414300000003 -0.002311 -0.041529 -0.002099
3900 -0.71356959 9.635911740000001 -2.5000981200000005 0.0008560000000000001 -0.047936 -0.001001
3920 -0.7403607000000001 9.654021 -2.4869331000000003 0.009386 -0.04797 0.000127
3940 -0.7656606900000001 9.65432511 -2.49531084 0.013634 -0.052246 0.000162
3960 -0.7741855799999999 9.596995470000001 -2.48932674 0.010405 -0.06181 -0.003053
3980 -0.75098493 9.564661710000001 -2.4822831600000006 0.005065999999999999 -0.066039 -0.006289
4000 -0.7536826799999999 9.54624834 -2.4496551 -0.002407 -0.069201 -0.008473999999999999
4020 -0.79933842 9.54010728 -2.4478598700000003 -0.007751000000000002 -0.069191 -0.006375
4040 -0.8482903200000002 9.55747098 -2.4189694200000003 -0.008813 -0.064939 -0.003183
4060 -0.8994789 9.55119258 -2.43573471 -0.008823000000000001 -0.061764 0.002154
4080 -0.8973795600000001 9.544904370000001 -2.39067738 -0.009889 -0.06176 0.002147
4100 -0.91190817 9.544904370000001 -2.42735697 -0.012018 -0.06281 -3e-06
4120 -0.8890018199999999 9.584870310000001 -2.43723564 -0.013085 -0.060684 0.002123
4140 -0.9225324 9.59040315 -2.4291522000000003 -0.010894 -0.051091 -0.001079
4160 -0.94812669 9.58651839 -2.4128283600000002 -0.008727 -0.043642 -0.001073
4180 -0.92358207 9.60776685 -2.38768533 -0.0033159999999999995 -0.025555 1e-05
4200 -0.9282222 9.61345665 -2.38349646 0.0031620000000000003 -0.009594 -0.001034
4220 -0.8994789 9.596092950000001 -2.40445062 0.004296 0.003194 -0.003179
4240 -0.905463 9.57049866 -2.4111900900000003 0.00222 0.008556999999999999 -0.010678
4260 -0.94183848 9.55029006 -2.40474492 -0.000937 0.009668 -0.019247
4280 -0.9936352800000001 9.5350257 -2.35281078 -0.0008849999999999998 0.012898 -0.027796
4300 -1.02746016 9.54789642 -2.3725681200000004 -0.00298 0.018244 -0.031023
4320 -1.01308851 9.561669660000002 -2.3543019000000003 -0.014716 0.018285 -0.031105
4340 -1.0434798900000002 9.568850580000001 -2.35879488 -0.020045 0.022552000000000003 -0.027943
4360 -1.0463247900000001 9.590256 -2.37660984 -0.023236 0.029999 -0.022633
4380 -1.0671318 9.60552036 -2.39651433 -0.023212 0.04063 -0.017306000000000002
4400 -1.10095668 9.61824393 -2.34681687 -0.025341 0.044886 -0.014121000000000003
4420 -1.12326462 9.651774510000001 -2.32301781 -0.021078 0.044867 -0.013022999999999998
4440 -1.15664805 9.628573860000001 -2.27077956 -0.010395 0.049086000000000005 -0.011886
4460 -1.12371588 9.602234010000002 -2.28529836 -0.002903 0.054387 -0.01184
4480 -1.1115907199999997 9.63441081 -2.27766618 0.000297 0.05755800000000001 -0.008617
4500 -1.09691496 9.59250249 -2.29188087 0.006665000000000001 0.057506 -0.0010949999999999998
4520 -1.0431855900000004 9.54864198 -2.2873977 0.013032 0.056392999999999985 0.00536
4540 -1.03689738 9.53127828 -2.2817079000000002 0.01408 0.055311 0.008573
4560 -1.015335 9.520948350000001 -2.27616525 0.007665000000000002 0.056382 0.0128
4580 -1.0409391000000001 9.51601392 -2.32227225 -0.004157 0.047858 0.023411
4600 -1.0352493 9.49595247 -2.30116113 -0.011745 0.043534 0.045796
4620 -1.06473816 9.54400185 -2.30490855 -0.021495 0.031764 0.067107
4640 -1.0806009300000001 9.57169548 -2.35355634 -0.039771 0.021094 0.087289
4660 -1.10336013 9.61914645 -2.3779538100000006 -0.070811 0.014746 0.103104
4680 -1.12116528 9.63007479 -2.38843089 -0.093258 0.016908000000000003 0.114695
4700 -1.1199684600000002 9.65521782 -2.39591592 -0.101726 0.028669 0.11141600000000003
4720 -1.1150340300000001 9.652824180000001 -2.4002617500000003 -0.092052 0.026577 0.093326
4740 -1.1064993300000001 9.60268527 -2.36073726 -0.065333 0.008490000000000001 0.064694
4760 -1.13448726 9.621088830000001 -2.3243617800000003 -0.037537 0.001017 0.044602
4780 -1.1066464800000002 9.51885882 -2.31464007 -0.010846 -0.017096 0.022379
4800 -1.06189326 9.49819896 -2.32062417 0.014888 -0.008583 0.002251
4820 -1.0484241300000001 9.49819896 -2.35310508 0.023505 -0.003235 -0.010514
4840 -1.0285098300000002 9.51346332 -2.37900348 0.016069999999999997 -0.00424 -0.01911
4860 -0.9759674700000001 9.51855471 -2.35609713 0.011822 3.6e-05 -0.019145
4880 -0.9060614100000001 9.50014134 -2.3084990100000002 0.004425999999999999 0.019224 -0.016017
4900 -0.85277349 9.51585696 -2.18860119 -0.001966 0.027743 -0.009663
4920 -0.91010313 9.54160821 -2.12647446 -0.005162 0.030941000000000007 -0.007553
4940 -1.0326987 9.61376076 -2.1465359100000003 -0.010491 0.029903 -0.009726
4960 -1.25319807 9.70447383 -2.25970407 -0.014763 0.028853 -0.009754
4980 -1.2051486900000001 9.755515260000001 -2.37376494 -0.016907 0.02673 -0.009766
5000 -1.29510639 9.740398050000001 -2.43648027 -0.011587 0.027759 -0.005458
5020 -1.2955576500000001 9.696390390000001 -2.39486625 -0.002004 0.029831 0.001016
5040 -1.2307429799999998 9.62572896 -2.3126878800000004 0.002234 0.032973 0.010656
5060 -1.20634551 9.59130567 -2.23514964 0.005416 0.035067 0.017084000000000002
5080 -1.14287481 9.66465504 -2.2020703200000002 0.002182 0.033987 0.023473
5100 -1.05890121 9.66300696 -2.1784184100000004 -0.003201 0.032902 0.03305
5120 -1.0008162 9.608669370000001 -2.18006649 -0.009635 0.037139 0.04475
5140 -1.01698308 9.592051230000001 -2.17198305 -0.012884 0.038168 0.056477
5160 -1.04063499 9.53172954 -2.1562674300000007 -0.017214 0.037067 0.069267
5180 -1.05605631 9.51810345 -2.13201711 -0.023663 0.039169 0.082038
5200 -1.0472175000000001 9.54220662 -2.1525200100000004 -0.034341 0.044502 0.089434
5220 -0.94767543 9.5466996 -2.1664404000000004 -0.037561 0.045558 0.094751
5240 -0.87133401 9.56346489 -2.1860505900000002 -0.033269 0.045564 0.08943999999999999
5260 -0.88960023 9.580524480000001 -2.18156742 -0.025825 0.034907 0.084164
5280 -0.92073717 9.612259830000001 -2.1609075600000005 -0.01408 0.027447000000000003 0.074642
5300 -0.94183848 9.63471492 -2.15507061 -0.004488000000000001 0.01149 0.060843
5320 -0.91310499 9.60792381 -2.1941340300000003 0.005061 -0.018299 0.042788
5340 -0.87762222 9.61345665 -2.21449959 0.016715 -0.042815 0.036491
5360 -0.90082287 9.617949630000002 -2.1980286 0.052969 -0.055691 0.028215
5380 -0.91954035 9.61376076 -2.20357125 0.103232 -0.046211 0.011463
5400 -0.9143018100000001 9.57903336 -2.18305854 0.145839 -0.104775 -0.031962
5420 -0.8509782600000001 9.5672025 -2.18844423 0.193632 -0.18577 -0.064639
5440 -0.8186445 9.57588435 -2.14369101 0.26397800000000005 -0.17970999999999998 -0.042791
5460 -0.86384898 9.60252831 -2.15237286 0.264853 -0.16609100000000002 0.013813
5480 -0.94528179 9.631870020000001 -2.21763879 0.124955 -0.145567 0.064084
5500 -0.95995755 9.57813084 -2.29307769 -0.026444 -0.078109 0.108874
5520 -0.95711265 9.6306732 -2.28948723 -0.032854 -0.062180999999999986 0.126969
5540 -0.9759674700000001 9.69084774 -2.3110398 -0.018971 -0.059033 0.12706199999999998
5560 -0.97612443 9.78335604 -2.39562162 -0.031706 -0.06741699999999999 0.103482
5580 -0.95591583 9.72243594 -2.42451207 -0.07007000000000001 -0.093769 0.066929
5600 -0.90770949 9.61555599 -2.3534091900000003 -0.093517 -0.132923 0.02195
5620 -0.8777791800000001 9.66210444 -2.3962200300000003 -0.10952 -0.163636 -0.009101
5640 -0.8616123 9.8415882 -2.6837707500000003 -0.142492 -0.160248 -0.028564
5660 -0.65519028 9.84577707 -2.8746243000000002 -0.17218699999999998 -0.129217 -0.037357
5680 -0.57121668 9.65461941 -2.87791065 -0.193313 -0.093942 -0.0493
5700 -0.52271604 9.2950731 -2.64185262 -0.217774 -0.078934 -0.051626
5720 -0.37168128 9.11813994 -2.21314581 -0.240245 -0.081037 -0.038962
5740 -0.3558087 9.24851484 -1.89565497 -0.253038 -0.058703 -0.018784
5760 -0.6179122800000001 9.383088420000002 -2.12378652 -0.277447 -0.012879 -0.001921
5780 -0.87118686 9.36257571 -2.2728690900000004 -0.30614600000000003 0.028694 0.015985
5800 -1.0571059800000002 9.31617441 -2.2806582300000002 -0.354035 0.06504299999999999 0.025217
5820 -1.21876497 9.29297376 -2.2372489800000004 -0.347855 0.04997 0.059463
5840 -1.3765392 9.35988777 -2.20520952 -0.311653 0.114501 0.140818
5860 -1.41215931 9.47021103 -2.1490767 -0.219085 0.101223 0.184211
5880 -1.34674623 9.49640373 -2.03726232 -0.136731 0.182816 0.22100100000000006
5900 -1.21666563 9.442360440000002 -1.9752925500000003 -0.086191 0.249838 0.199904
5920 -1.15021269 9.45284733 -1.99609956 -0.058198 0.218137 0.111477
5940 -1.21801941 9.55897191 -2.10702123 0.016791999999999998 -0.118078 -0.056347
5960 -1.1870296200000001 9.53846901 -2.3067037800000003 0.09019 -0.278739 -0.16885999999999998
5980 -1.18238949 9.505683990000001 -2.22318144 -0.060787 -0.18332 -0.190333
6000 -1.2560331599999999 9.54759231 -2.0270893500000002 -0.21418 -0.094511 -0.155199
6020 -1.2666672 9.48786903 -1.9866721500000002 -0.245153 -0.059419000000000013 -0.112731
6040 -1.2244547700000001 9.60776685 -2.06615277 -0.263074 0.037387 -0.063842
6060 -1.08030663 9.863287920000001 -2.4291522000000003 -0.289326 -0.011905 0.031109
6080 -0.6330294900000001 10.03318731 -2.5723978200000004 -0.323113 -0.121708 0.080152
6100 -0.41793543000000005 10.37851893 -2.92880493 -0.355224 -0.119567 0.105562
6120 -0.34787241 10.141107120000001 -2.6420095800000003 -0.36174 -0.128135 0.122619
6140 -0.70338681 9.60238116 -1.8631740600000002 -0.355363 -0.123935 0.132273
6160 -1.3733901900000003 9.31183839 -1.52458191 -0.349182 -0.166594 0.13878
6180 -2.2806582300000002 9.54265788 -2.7693924300000003 -0.30569 -0.229567 0.131687
6200 -2.19383973 9.70776018 -2.77673031 -0.279024 -0.243458 0.119072
6220 -1.7342902800000002 9.68156748 -1.81378071 -0.271546 -0.228621 0.131924
6240 -1.2555917100000002 9.592649640000001 -0.9122024700000001 -0.273737 -0.230787 0.142594
6260 -0.92387637 9.876609900000002 -0.8372050200000001 -0.264231 -0.237272 0.157623
6280 -0.63587439 10.039926779999998 -1.2946551300000002 -0.257758 -0.207522 0.171517
6300 -0.23531247000000002 9.83798793 -2.15461935 -0.265193 -0.198978 0.172523
6320 -0.48798864 9.811343970000001 -2.07813078 -0.254457 -0.183041 0.173646
6340 -0.7852708800000001 9.64698723 -1.3720462199999999 -0.237215 -0.15854400000000002 0.159848
6360 -0.7888613400000001 9.59728977 -1.1906200800000002 -0.209471 -0.160759 0.15684
6380 -0.64440909 9.69773436 -1.23583437 -0.205194 -0.158643 0.156867
6400 -0.57450303 9.72078786 -1.2979512899999999 -0.204147 -0.139566 0.180351
6420 -0.6885639 9.71015382 -1.43551692 -0.211596 -0.13103399999999998 0.184561
6440 -0.79769034 9.755368110000001 -1.17610128 -0.220222 -0.147001 0.188794
6460 -0.6947049599999999 9.90968922 -0.95067729 -0.203022 -0.118298 0.188877
6480 -0.6216597000000001 9.923315310000001 -0.9542677500000001 -0.185857 -0.105541 0.180435
6500 -0.75233871 9.74877579 -0.89364195 -0.193306 -0.113985 0.167575
6520 -0.7318260000000001 9.89622009 -0.714168 -0.203907 -0.108583 0.15788
6540 -0.8207438400000001 9.85130991 -0.68931927 -0.224221 -0.122344 0.15348299999999998
6560 -0.8146027800000001 9.80610543 -0.6216597000000001 -0.245567 -0.131827 0.145868
6580 -0.83376171 9.77871591 -0.5697157500000001 -0.25935 -0.114726 0.14361400000000002
6600 -0.72419382 9.83140542 -0.52196067 -0.275219 -0.091208 0.13706300000000002
6620 -0.57165813 10.038573000000001 -0.53888292 -0.279285 -0.060245000000000014 0.123108
6640 -0.50399856 10.01133063 -0.39113451 -0.269583 -0.046397 0.114613
6660 -0.48574215000000004 10.10369178 -0.40685013000000003 -0.263143 -0.043202 0.109312
6680 -0.55354887 9.92465928 -0.40685013000000003 -0.25666100000000003 -0.024054 0.110401
6700 -0.39383226000000005 9.910738890000001 -0.27587682 -0.253383 -0.002777 0.11467
6720 -0.45580203 9.728272890000001 -0.2342628 -0.227683 0.039659 0.136159
6740 -0.53379153 9.787849020000001 -0.24189498000000004 -0.217105 0.015138 0.131992
6760 -0.5104339200000001 9.740093940000001 -0.17019369 -0.204327 0.001279 0.123553
6780 -0.38096154000000004 9.90100737 -0.13412232000000002 -0.2046 -0.09021 0.09269
6800 -0.37601730000000005 9.98468667 -0.11975067000000002 -0.186224 -0.018973 0.110887
6820 -0.39368511 10.007436060000002 -0.03622833 -0.181999 -0.013722 0.125865
6840 -0.3972755700000001 10.051149420000002 0.0205029 -0.157485 -0.021256 0.123909
6860 -0.44293130999999997 10.0559367 0.18082773000000002 -0.143655 -0.04468 0.109081
6880 -0.44921952000000004 9.90968922 0.19504242000000002 -0.124317 -0.026591000000000004 0.097442
6900 -0.42975648 9.839940120000001 0.22512969000000002 -0.111332 0.018088 0.101748
6920 -0.34143705 9.92989782 0.37018035000000005 -0.08888 0.035029000000000005 0.108293
6940 -0.37227969 9.892178370000002 0.40430934 -0.08137899999999999 0.039276 0.105135
6960 0.06691401 9.93513636 0.46942812 -0.070677 0.01911 0.077462
6980 0.051198389999999996 9.822870720000001 0.47316573 -0.074724 0.093591 0.102976
7000 0.00494424 9.807007950000001 0.48723327000000005 -0.071504 0.101024 0.106193
7020 0.07469334000000001 9.8418825 0.6448603500000001 -0.06083 0.113723 0.118002
7040 0.26614530000000003 9.747127710000001 0.7155119700000001 -0.061955 0.106248 0.123345
7060 0.59097402 9.91552617 0.69905079 -0.053453 0.087091 0.111678
7080 0.42541065000000006 9.97930098 0.6197075100000001 -0.0523 0.090347 0.095659
7100 0.21824307 9.83484873 0.42272271 -0.058677 0.082963 0.08280499999999999
7120 0.12663729 9.80640954 0.5477119200000001 -0.05968200000000001 0.087266 0.073179
7140 0.22677777 9.92496339 0.6390234 -0.058639 0.074509 0.065725
7160 0.36508896 9.93558762 0.57645522 -0.0554 0.088325 0.07107100000000001
7180 0.29189655000000003 9.96851979 0.54785907 -0.052291 0.076562 0.079653
7200 0.09744273000000002 9.840234420000002 0.5959084500000001 -0.053636 -0.013867 0.050918
7220 0.49262877000000005 9.79084107 0.6828839100000001 -0.034053 0.107357 0.088287
7240 0.44217594000000005 9.86044302 0.77239035 -0.051142 0.103156 0.088173
7260 0.36044883 9.780815250000002 0.82029258 -0.032991 0.089312 0.071226
7280 0.48619341000000005 9.843383430000001 0.8306225100000001 -0.037278 0.0787 0.0648
7300 0.49667049 9.81928026 0.62494605 -0.043645 0.082996 0.061546
7320 0.39712842 9.85595004 0.74335275 -0.039364 0.080872 0.056237
7340 0.48304440000000004 10.04036823 0.7499450700000001 -0.036125 0.081956 0.048781
7360 0.40340682000000005 9.96986376 0.71955369 -0.027609 0.069177 0.040311
7380 0.46388547 9.81718092 0.8119148400000001 -0.026451 0.08516900000000001 0.036026
7400 0.46553355 9.77333022 0.79035246 -0.020021 0.085173 0.029661
7420 0.56792052 9.72198468 0.77972823 -0.006065999999999999 0.100055 0.025467
7440 0.52810173 9.76508982 0.73332693 -0.002808 0.103278 0.015871
7460 0.1790325 9.891285660000001 0.6993450900000001 0.009029 0.110753 0.000989
7480 0.8813696400000001 9.947418480000001 0.87567984 0.010187 0.126746 -0.003296
7500 0.46388547 9.81628821 0.8678907000000001 0.002704 0.119332 -0.007612000000000002
7520 0.33365772000000005 9.86553441 0.78182757 0.0017280000000000002 0.139576 -0.007644
7540 0.47046798 9.948311190000002 0.8458868700000001 -0.002563 0.135325 -0.006601
7560 0.54037404 9.878562089999999 0.86265216 -0.004721 0.127884 -0.008743
7580 0.5643300600000001 9.918371070000001 0.8559225 0.006999999999999999 0.121465 -0.011857
7600 0.54352305 9.956100330000002 0.8619066000000001 0.014502 0.128895 -0.011814
7620 0.5260023900000002 9.88634142 0.73258137 0.009134 0.127823 -0.005441
7640 0.51687909 9.841284090000002 0.8619066000000001 0.010139 0.120337 0.000985
7660 0.51418134 9.9167328 0.9006757200000001 0.005771 0.099042 0.00205
7680 0.56507562 9.878562089999999 0.8722365300000001 0.01642 0.086256 -0.006405
7700 0.51972399 9.969569459999999 0.83256489 0.017564 0.104358 -0.005352
7720 0.4685256 9.90624591 0.85951296 0.007909000000000001 0.094795 -0.003271
7740 0.53319312 9.891884070000001 0.9210314700000001 0.009985 0.077761 -0.007506999999999998
7760 0.53319312 9.91867518 0.94199544 0.00998 0.074573 -0.00964
7780 0.5822921700000002 9.864631890000002 0.99707859 0.006784999999999999 0.07565 -0.009664
7800 0.60009732 9.918371070000001 0.9404945100000001 0.008784 0.048998 -0.006411
7820 0.53558676 9.88125003 0.82927854 -0.007238 0.055403 0.004151
7840 0.53183934 9.823626090000001 0.8572664700000001 -0.013793 0.031947 0.014818
7860 0.52570809 9.845629920000002 0.91504737 -0.016027 0.018072 0.023366
7880 0.5619266099999999 9.87720831 0.84499416 -0.019242 0.019131 0.027615
7900 0.58079124 9.85460607 0.8544215700000001 -0.009674 0.007397 0.023424
7920 0.5290042500000001 9.85819653 0.83212344 -0.011817 -0.004275 0.01381
7940 0.48813579 9.7983261 0.86879322 -0.012932 -0.015985 0.012749
7960 0.53932437 9.85520448 0.99019197 -0.016137000000000002 -0.015978 0.013794999999999998
7980 0.52719921 9.850711500000001 0.9135464400000001 -0.019472 -0.041551 0.018077
8000 0.49262877000000005 9.86852646 0.8963397000000001 -0.021596 -0.031986 0.025527
8020 0.50549949 9.870625800000001 0.9273196800000001 -0.010927 -0.041572000000000005 0.016
8040 0.51882147 9.843677730000001 0.9234251100000002 -0.006555 -0.0277 0.006399
8060 0.49471830000000006 9.74234043 0.85367601 -0.006483 -0.013843 0.0042450000000000005
8080 0.5794472700000001 9.73800441 1.0255177800000002 -0.008688 -0.031937 0.002117
8100 0.6304887000000001 9.728115930000001 0.8768766600000001 -0.00865 -0.017048 0.008506999999999999
8120 0.5918667300000001 9.74997261 0.92059002 -0.008664 -0.019183 0.009578
8140 0.60968169 9.85311495 0.8533719000000001 -0.002196 -0.006414 0.00747
8160 0.55968993 9.87675705 0.7643069100000002 0.005301 -0.006414 0.001113
8180 0.5468094 9.87735546 0.8789760000000001 0.010669 0.004207 0.004342
8200 0.46089342000000005 9.85595004 0.8027817300000001 0.008482 -0.0032600000000000003 0.008609
8220 0.50624505 9.79189074 0.8994789 0.005214 -0.014979 0.011806
8240 0.53603802 9.813590460000002 0.8445429000000001 0.0052 -0.021358 0.008609
8260 0.5786919 9.844276140000002 0.8608569300000001 0.008409999999999999 -0.031971 -0.004173
8280 0.48693897 9.90071307 0.8285231700000001 0.009549 -0.024484 -0.012721
8300 0.33126408 9.90071307 0.8372050200000001 0.006416 -0.014864 -0.018096
8320 0.37331955 9.862689510000001 0.87253083 0.006416 -0.016986 -0.02023
8340 0.38933928 9.851015610000001 0.8381075400000001 -0.003129 -0.000986 -0.017112
8360 0.41882814000000007 9.82497006 0.98076456 6.7e-05 0.001121 -0.013888
8380 0.46223739 9.86134554 0.8707356 4.3e-05 -0.001023 -0.010681
8400 0.40057173 9.88155414 0.8207438400000001 -0.004239 -0.003143 -0.00964
8420 0.44307846000000006 9.80057259 0.83346741 2.4e-05 -0.0052840000000000005 -0.010675
8440 0.46598481 9.863287920000001 0.85277349 3.4e-05 -0.005275 -0.012812
8460 0.52974981 9.92001915 0.7375158 1.9e-05 -0.008471 -0.012808000000000002
8480 0.59920461 9.8535564 0.8572664700000001 0.002148 -0.010605 -0.013858
8500 0.5342427900000001 9.84008727 0.85606965 0.00112 0.001104 -0.010676
8520 0.49621923000000007 9.91912644 0.7192495799999999 -0.004258 -0.009526 -0.011768
8540 0.42676443000000003 9.930653190000001 0.84873177 0.001072 -0.012732 -0.013863
8560 0.38185425 9.92465928 0.86879322 -0.002043 0.005393 -0.014976
8580 0.36644274000000004 9.82272357 0.7803266400000001 -0.005296 -0.014801 -0.023519
8600 0.3876912 9.839037600000001 0.76461102 -0.008449 -0.009443 -0.028889
8620 0.50444982 9.827069400000001 0.9021766500000001 -0.013759 0.00439 -0.020398
8640 0.40849821 9.878110829999999 0.83032821 -0.01064 -0.005242 -0.011818
8660 0.43110045 9.82901178 0.6815301300000001 3.8e-05 3.4e-05 -0.008546
8680 0.50759883 9.84248091 0.8104139100000001 4.8e-05 0.003226 -0.007481
8700 0.45610614000000005 9.890235990000003 0.8231374800000001 -0.002076 0.004303 -0.008565999999999999
8720 0.44053767000000005 9.881848440000002 0.72060336 -0.010597 0.0011619999999999998 -0.015031
8740 0.46508229 9.8444331 0.74095911 -0.01275 -0.00203 -0.013973
8760 0.44712018000000003 9.88304526 0.8767295100000001 -0.010616 0.0032670000000000004 -0.008624
8780 0.42301701 9.89876088 0.8000839800000001 0.001062 -0.006374 -0.005326
8800 0.44921952000000004 9.82990449 0.7461976499999999 0.003172 -0.009586 -0.00317
8820 0.4363389900000001 9.85850064 0.8692444800000001 -0.00321 -0.001058 0.001047
8840 0.40176855 9.9284067 0.71311833 -0.009563 0.008556 -7.8e-05
8860 0.35776089000000005 9.87541308 0.7888613400000001 -0.009539 0.00115 -0.012887
8880 0.38604312 9.87227388 0.9391505400000001 -0.007358 0.010734 -0.013952
8900 0.45535077 9.8968185 0.82777761 -0.008439 0.016030000000000003 -0.0054210000000000005
8920 0.43020774 9.836192700000002 0.74904255 -0.0021100000000000003 0.007456 0.002112
8940 0.39847239000000007 9.841735350000002 0.7894597500000001 0.002191 0.014898 0.002133
8960 0.31973733000000004 9.81898596 0.77553936 -0.000947 0.023452 -0.0032409999999999995
8980 0.35042301000000003 9.848170710000002 0.8416980000000001 -0.003081 0.024521 -0.002189
9000 0.38709279 9.93319398 0.8328690000000001 -0.00309 0.025573 0.001014
9020 0.43484787 9.82930608 0.91818657 -0.0041670000000000006 0.02769 0.005277
9040 0.38529756 9.8068608 0.8415508500000001 0.000115 0.026627 0.001035
9060 0.35191413000000005 9.884840490000002 0.8062250400000001 0.000153 0.027722000000000004 -0.006444
9080 0.38364948 9.921068819999999 0.8182030499999999 -0.003018 0.035186 -0.005407
9100 0.39113451 9.855351630000001 0.8984292300000001 -0.001985 0.029848000000000006 -0.003257
9120 0.29264211 9.81718092 0.8884034100000001 -0.000889 0.036236 -0.003257
9140 0.22273605000000002 9.822272309999999 0.78975405 -0.004071 0.044752 0.000982
9160 0.35386632 9.88619427 0.9698362200000001 -0.001952 0.043671 0.003135
9180 0.39802113000000006 9.919273590000001 0.87881904 0.001273 0.04262 -0.00325
9200 0.37946061000000003 9.8617968 0.73766295 -0.001923 0.040513 -0.006475
9220 0.35939916000000005 9.81434583 0.8732862 -0.01041 0.049074 -0.008681
9240 0.29742939 9.83410317 0.8789760000000001 -0.012572 0.038445 -0.012956
9260 0.36299943 9.867035340000001 0.8672922900000001 -0.014744 0.034175 -0.008693000000000001
9280 0.37123002000000005 9.871822620000001 0.8587674 -0.022212 0.031018 -0.011945
9300 0.38395359 9.860747130000002 0.85936581 -0.018911 0.048072 -0.017285
9320 0.34563573000000003 9.88334937 0.8692444800000001 -0.013553 0.051258000000000005 -0.019388
9340 0.32272938000000007 9.88813665 0.81610371 -0.01351 0.059784 -0.020467
9360 0.37587015 9.896524200000002 0.85472568 -0.012347 0.07896399999999999 -0.02262
9380 0.32901759 9.8535564 0.8211951000000001 -0.007012999999999999 0.081067 -0.020449
9400 0.35251254000000004 9.82721655 0.96144867 0.002632 0.094865 -0.016127000000000002
9420 0.39637305000000006 9.863592030000001 0.88166394 0.015507 0.103372 -0.023525
9440 0.3469797 9.82990449 0.8190957600000001 0.033667 0.101208 -0.030873
9460 0.33186249000000007 9.844727400000002 0.8285231700000001 0.045527 0.121437 -0.038294
9480 0.40311252 9.871822620000001 0.87253083 0.04979 0.11293 -0.04573
9500 0.41987781 9.881397179999999 0.94154418 0.059497 0.133149 -0.048893
9520 0.37811664000000006 9.833053500000002 0.8454454200000001 0.058464 0.13106099999999998 -0.058512
9540 0.42765714000000005 9.871675470000001 0.9038247300000001 0.0499 0.122577 -0.060697
9560 0.41793543000000005 9.89816247 0.9047174400000001 0.03505 0.150292 -0.052291
9580 0.40744854 9.826912440000001 0.9156457800000001 0.024291 0.13115 -0.051273
9600 0.34862778 9.911484450000001 0.83256489 0.027563 0.147118 -0.051271
9620 0.33844500000000005 9.909542069999999 0.8821152000000001 0.025506 0.167353 -0.048106
9640 0.32946885000000004 9.836045550000001 0.93525597 0.025583 0.192885 -0.039593
9660 0.41598324 9.890235990000003 0.85741362 0.028836 0.212019 -0.032117
9680 0.43738866000000004 9.901605779999999 0.88166394 0.032085 0.23220900000000005 -0.022506
9700 0.38560167000000006 9.85206528 0.8572664700000001 0.034271 0.243919 -0.022506
9720 0.36329373000000004 9.872872290000002 0.8586104400000001 0.05025 0.221561 -0.039457
9740 0.35281665 9.916879950000002 0.95680854 0.050178 0.196033 -0.049039
9760 0.29728224000000003 9.84262806 0.8210381400000001 0.041629 0.179074 -0.06296399999999999
9780 0.29533986 9.77886306 0.9369040500000001 0.041595 0.159946 -0.07468999999999999
9800 0.20821725000000002 9.91568313 0.90112698 0.036204 0.131267 -0.090714
9820 0.26629245 9.90116433 0.8189486100000001 0.030433 0.004638000000000001 -0.120502
9840 0.45355554 9.85445892 1.0503665100000001 0.03441 0.182505 -0.115361
9860 0.4337982 9.892629629999998 0.87373746 0.029167 0.203825 -0.114357
9880 0.40371093 9.873166590000002 0.8872065900000001 0.047169 0.166507 -0.121661
9900 0.49696479000000005 9.96971661 0.8448470100000001 0.043887 0.143103 -0.126995
9920 0.50355711 9.936333180000002 0.73272852 0.040787 0.162302 -0.130246
9940 0.54816318 9.96223158 0.6541406099999999 0.053595 0.154835 -0.138693
9960 0.58872753 9.93080034 0.71940654 0.066339 0.129275 -0.15139
9980 0.5557953599999998 9.884399040000002 0.7011403200000002 0.07373099999999999 0.109021 -0.15451700000000002
10000 0.52840584 9.89292393 0.6271925400000001 0.083289 0.100461 -0.153371
10020 0.64650843 9.8242245 0.82942569 0.097115 0.087643 -0.15646300000000002
10040 0.69410655 9.84831786 0.8884034100000001 0.115137 0.057769000000000015 -0.160571
10060 0.6303415499999999 9.803417490000001 0.8789760000000001 0.122653 0.065212 -0.163733
10080 0.47017368 9.76120506 0.78736041 0.138694 0.06519 -0.172167
10100 0.1790325 9.88903917 0.7084782000000001 0.156778 0.053409000000000005 -0.172025
10120 0.60788646 10.008034470000002 0.8473878 0.16071 -0.004198 -0.154832
10140 0.40835106000000004 9.96462522 0.7973960400000001 0.180302 0.093692 -0.143071
10160 0.25806186000000003 9.96942231 0.5918667300000001 0.186626 0.089358 -0.13020199999999998
10180 0.18726309 9.898466580000001 0.75578202 0.212269 0.092485 -0.13536800000000002
10200 0.237402 9.80236782 0.91190817 0.233659 0.10519 -0.134167
10220 0.23620518 9.823920390000001 0.91639134 0.247481 0.093427 -0.135123
10240 0.10508471999999999 9.87765957 0.8735805000000001 0.262311 0.073122 -0.13178900000000002
10260 0.13981212 9.86478885 0.97911648 0.262172 0.064511 -0.109346
10280 0.19250163000000003 9.92720988 0.9723770100000001 0.266397 0.062336 -0.101837
10300 0.09624591 9.84981879 0.96444072 0.2631 0.048468 -0.094364
10320 -0.0318825 9.896072940000002 0.8448470100000001 0.262048 0.038936 -0.107178
10340 -0.10283823 9.90460764 0.9017253900000001 0.24837 0.072046 -0.11693
10360 -0.28381311 9.8734707 0.8357139 0.223919 0.094489 -0.113925
10380 -0.34832367 9.854753220000003 0.7213489200000001 0.19308 0.098931 -0.132306
10400 -0.45699885 9.84742515 0.76386546 0.17511600000000002 0.121429 -0.148483
10420 -0.18202455 9.919273590000001 0.8692444800000001 0.162525 0.168345 -0.148632
10440 -0.46104057 9.7724277 0.6506973 0.143297 0.16414700000000002 -0.14769200000000002
10460 -0.6179122800000001 9.76224492 0.54831033 0.14002 0.14711400000000002 -0.14769300000000002
10480 -0.6631167600000001 9.727968780000001 0.51343578 0.137824 0.142822 -0.13808900000000002
10500 -0.63558009 9.852359580000002 0.43439661 0.132389 0.144873 -0.113561
10520 -0.6306358500000001 9.91597743 0.29833191000000003 0.13867000000000002 0.133073 -0.098547
10540 -0.6216597000000001 9.88125003 0.44053767000000005 0.144851 0.090415 -0.092039
10560 -0.77808015 9.92001915 0.37616445 0.13202 0.088312 -0.087853
10580 -0.7188081300000001 9.91269108 0.35251254000000004 0.123533 0.105361 -0.081525
10600 -0.92672127 10.023455790000002 0.26614530000000003 0.118256 0.121345 -0.078378
10620 -0.9225324 10.003992750000002 0.20223315000000003 0.102306 0.130997 -0.080638
10640 -0.96908085 10.14200964 0.11211849 0.083112 0.12789 -0.086109
10660 -1.0847898 10.141705530000001 -0.01961019 0.061636 0.091767 -0.091554
10680 -1.02761712 10.081687950000001 -0.23246757 0.047762 0.091811 -0.090583
10700 -0.8692444800000001 9.779314320000001 -0.34578288 0.033859 0.092891 -0.082136
10720 -0.94827384 9.68860125 -0.43963515000000003 0.017803 0.088656 -0.074765
10740 -1.04243022 9.65073465 -0.59905746 0.010316 0.07911599999999999 -0.08014600000000001
10760 -1.0334540700000001 9.71928693 -0.66775689 0.011311 0.061011 -0.08225199999999999
10780 -0.905463 9.763451550000001 -0.65683836 0.006999999999999999 0.05356 -0.080136
10800 -0.87238368 9.77991273 -0.78586929 0.007991 0.041817 -0.074773
10820 -0.8577177300000002 9.78545538 -0.77688333 0.007932999999999999 0.034339 -0.069423
10840 -0.8880993 9.775272600000001 -0.68048046 -0.002793 0.024776 -0.06628099999999999
10860 -0.9458802000000001 9.838890450000001 -0.6857288100000001 -0.010386 0.004533 -0.058831
10880 -1.04078214 9.827363700000001 -0.7188081300000001 -0.011529 -0.002959 -0.049215
10900 -1.09257894 9.75461274 -0.68348232 -0.013759 -0.013647 -0.038535
10920 -1.1533518900000002 9.831552570000001 -0.6474011400000002 -0.013826 -0.023255 -0.033182
10940 -1.12116528 9.82241946 -0.7697024100000001 -0.005363000000000001 -0.036081 -0.029901
10960 -1.0370445300000004 9.752366250000001 -0.84559257 -8.1e-05 -0.046757 -0.028783
10980 -0.9876413700000001 9.70476813 -0.71955369 -0.005459 -0.053142 -0.025607
11000 -1.09676781 9.735306660000001 -0.73931103 -0.005478 -0.044671 -0.0128
11020 -1.2114270900000004 9.715843620000001 -0.79230465 -0.011846 -0.027643 -0.003252
11040 -1.18793214 9.763893 -0.8370578700000001 -0.012980000000000002 -0.047858 -0.008575
11060 -1.06892703 9.83065986 -0.8012807999999999 -0.006569 -0.044689 -0.007465999999999999
11080 -1.0096550100000001 9.80581113 -0.7735871700000001 -0.006540000000000001 -0.031931 -0.001073
11100 -0.9518741100000001 9.77032836 -0.76715181 -0.011975 -0.054283000000000005 -0.001082
11120 -0.9710330400000001 9.76809168 -0.7782273000000001 -0.011004 -0.067104 0.0074870000000000015
11140 -1.05021936 9.82332198 -0.78286743 -0.014234 -0.061814 0.019208000000000003
11160 -1.0464719400000002 9.76434426 -0.8150540400000001 -0.021716 -0.060739 0.023427
11180 -1.03853565 9.77018121 -0.7758336600000001 -0.00778 -0.037386 0.03204
11200 -1.06218756 9.72528084 -0.6905160899999999 -0.006626000000000001 -0.009727 0.040559
11220 -1.0961694000000002 9.70671051 -0.6942537000000001 -0.014085 -0.009692 0.03837
11240 -1.15005573 9.73425699 -0.71940654 -0.008712000000000001 -0.003311 0.036263
11260 -1.18807929 9.76539393 -0.7774817399999999 -0.009722 0.008415 0.035173
11280 -1.17341334 9.74877579 -0.8707356 -0.006511 0.008412000000000001 0.033059
11300 -1.12341177 9.815689800000001 -0.8346642300000001 -0.0075299999999999985 0.015886 0.029837
11320 -1.20618855 9.79053696 -0.68662152 -0.019227 0.023388 0.028678
11340 -1.1770038 9.81045126 -0.79170624 -0.027729000000000004 0.035119 0.032876
11360 -1.0844955 9.74803023 -0.79484544 -0.029839 0.042574 0.034988
11380 -1.03419963 9.73860282 -0.6836294700000001 -0.030853 0.044747 0.025364
11400 -1.05635061 9.84547296 -0.7276371300000001 -0.018026 0.045785 0.02118
11420 -1.06907418 9.80565417 -0.7355734200000001 -0.00942 0.0681 0.027621
11440 -1.1934649800000001 9.77077962 -0.5912683200000002 -0.015844999999999998 0.065979 0.030783
11460 -1.2481066800000002 9.82901178 -0.60054858 -0.010539 0.066996 0.038297000000000005
11480 -1.27025766 9.75057102 -0.63123426 0.00443 0.076522 0.040525
11500 -1.35138636 9.78859458 -0.54816318 0.007654999999999999 0.078654 0.03734
11520 -1.4193500399999999 9.91597743 -0.4601478600000001 0.01618 0.08392100000000001 0.044871
11540 -1.3404580200000002 9.84218661 -0.48888135 0.005531 0.087158 0.043724
11560 -1.34315577 9.74607804 -0.39921795000000004 -0.003018 0.075504 0.035133
11580 -1.2957048 9.73246176 -0.39038895 0.00554 0.076557 0.030919
11600 -1.3446567 9.82497006 -0.37721412000000004 0.005636 0.097862 0.030892000000000006
11620 -1.34525511 9.88424208 -0.40969503 -0.000722 0.101106 0.024435
11640 -1.2581325 9.855057330000001 -0.4128440400000001 -0.002855 0.088381 0.011617
11660 -1.2627726300000002 9.837095220000002 -0.31973733000000004 -0.000655 0.089494 -0.002256
11680 -1.2868758 9.88035732 -0.36449055 0.002675 0.10233 -0.018272
11700 -1.23148854 9.81464013 -0.47510811000000003 -0.001582 0.088561 -0.034308
11720 -1.17356049 9.827814960000001 -0.43484787 -0.004865 0.058791 -0.046043
11740 -1.2428681400000001 9.85027005 -0.36838512000000007 -0.0124 0.043904 -0.046076
11760 -1.1782006200000001 9.846669780000001 -0.4656807 -0.012433 0.048118 -0.034332
11780 -1.10455695 9.81373761 -0.39068325000000004 -0.007132 0.053375 -0.021483
11800 -1.05186744 9.8387433 -0.43753581 0.003483 0.044802 -0.018193
11820 -1.02477222 9.79727643 -0.46343421000000007 0.019486 0.045807 -0.017013999999999998
11840 -1.06024518 9.82346913 -0.3376994400000001 0.029117 0.057470000000000014 -0.011621
11860 -1.09212768 9.90984618 -0.42197715 0.030169 0.057454 -0.008409
11880 -0.98704296 9.86223825 -0.5204695500000001 0.034456 0.0617 -0.008384
11900 -0.97013052 9.81344331 -0.41164722000000004 0.041905 0.056352 -0.009394
11920 -1.02477222 9.80895033 -0.3409956 0.043971 0.042492 -0.008293
11940 -1.13209362 9.85984461 -0.44023356 0.041771 0.027586000000000003 -0.008289
11960 -1.0961694000000002 9.903852270000002 -0.5641731000000002 0.044981 0.030766 -0.007203
11980 -0.9318126600000001 9.89876088 -0.5423262300000001 0.052463 0.039241000000000005 -0.00182
12000 -0.8678907000000001 9.91612458 -0.5236087500000001 0.067366 0.037037 0.003628
12020 -0.7412632200000001 9.8444331 -0.5536960200000001 0.075901 0.042312 0.009022
12040 -0.63632565 9.873313740000002 -0.54890874 0.077087 0.075306 0.015397
12060 -0.6742020599999999 9.842932170000001 -0.46927115999999996 0.076116 0.105103 0.023898
12080 -0.8074218599999999 9.756564930000001 -0.46328706 0.086862 0.128476 0.030352
12100 -0.87133401 9.77886306 -0.49966254000000004 0.084781 0.135957 0.026055
12120 -0.8873537400000001 9.928701 -0.55833615 0.092335 0.14131300000000002 0.012214
12140 -0.8000839800000001 9.919420740000001 -0.5748071400000002 0.114845 0.149816 -0.002594
12160 -0.8057737800000001 9.995310900000002 -0.51298452 0.113922 0.17010699999999998 -0.014377
12180 -0.85547124 9.890235990000003 -0.47406825 0.101162 0.172312 -0.021947
12200 -0.9005285700000001 9.80925444 -0.39532338 0.094795 0.175547 -0.026268
12220 -0.9282222 9.77422293 -0.3876912 0.086399 0.200104 -0.032768
12240 -0.9845021700000001 9.82631403 -0.38290392 0.08007 0.212922 -0.036033
12260 -1.03793724 9.864190440000002 -0.35251254000000004 0.070458 0.204459 -0.042499
12280 -1.0240168500000002 9.81344331 -0.30462012 0.067195 0.190622 -0.042504
12300 -1.05620346 9.837095220000002 -0.28889469 0.078998 0.215043 -0.032839
12320 -1.14811335 9.905206050000002 -0.33978897 0.08014099999999999 0.23845 -0.026451
12340 -1.22670126 9.92226564 -0.3617928 0.080103 0.237355 -0.018973
12360 -1.19616273 9.86627997 -0.39038895 0.080151 0.25119 -0.015785
12380 -1.1439244800000001 9.81868185 -0.35521029 0.076936 0.255433 -0.008336
12400 -1.28792547 9.79173378 -0.24743763 0.073726 0.256497 -0.005155
12420 -1.3641099300000001 9.78814332 -0.40804695 0.075864 0.257554 -0.005141
12440 -1.4316223499999998 9.862689510000001 -0.5580418500000002 0.080103 0.257514 0.001298
12460 -1.3208576400000003 9.81 -0.59710527 0.070482 0.254347 0.002303
12480 -1.3259392199999998 9.95789556 -0.48574215000000004 0.065014 0.219234 -0.003031
12500 -1.2293892 9.88963758 -0.63453042 0.070257 0.196853 -0.005103
12520 -1.18717677 9.866436929999999 -0.6373753200000001 0.080921 0.188323 -0.012495
12540 -1.2660687899999998 9.83963601 -0.6813829800000001 0.101114 0.158476 -0.025134
12560 -1.20798378 9.82122264 -0.73332693 0.091369 0.129735 -0.021961
12580 -1.1439244800000001 9.90190989 -0.8482903200000002 0.058229 0.131913 -0.005103
12600 -1.0671318 9.803417490000001 -0.88196805 0.05389 0.121254 0.000221
12620 -1.03958532 9.69802866 -0.7825731300000001 0.06651 0.074363 -0.00604
12640 -1.1011136400000001 9.70117767 -0.8033801400000001 0.038723 0.047892 -0.022224
12660 -1.06488531 9.75102228 -1.0021699800000001 0.01409 0.015002 -0.034104
12680 -1.0193767200000001 9.79069392 -1.03659327 0.014042 0.006470999999999999 -0.031957
12700 -0.96594165 9.73096083 -1.00994931 0.006531 -0.004151 -0.033064
12720 -1.00171872 9.7954812 -1.05890121 0.009664 -0.020137 -0.034089999999999995
12740 -0.92372922 9.75910572 -1.08643788 0.012826 -0.022305 -0.027656
12760 -0.8523320400000001 9.755966520000001 -1.20963186 0.017041 -0.031915 -0.025477
12780 -0.91310499 9.78904584 -1.24107291 0.021198 -0.051126 -0.020083
12800 -0.9306158400000001 9.50838174 -1.18673532 0.013711 -0.04369 -0.008394
12820 -0.98210853 9.45508401 -1.2954105 0.013763999999999998 -0.022423 0.001193
12840 -1.04826717 9.65702286 -1.45512711 0.014792 -0.038376 -0.006257
12860 -0.9710330400000001 9.95115609 -1.52726985 0.020107 -0.041595 -0.005147
12880 -0.65309094 10.09530423 -1.4882064300000002 0.014797 -0.026701 0.00441
12900 -0.62629983 9.914486310000001 -1.22070735 -0.002402 -0.06919600000000001 -0.009542
12920 -0.7899110100000001 9.71299872 -1.3332771 0.006142 -0.072401 -0.014819
12940 -0.9466355700000001 9.711949050000001 -1.57397526 -0.000153 -0.044698 -0.010626
12960 -1.10140794 9.768238830000001 -1.4166522899999998 -0.018247 -0.027621 -0.003297
12980 -1.00920375 9.77856876 -1.36366848 -0.01941 -0.051044 -0.005411
13000 -0.90875916 9.689346810000002 -1.2873270600000002 -0.021495 -0.048872000000000006 -0.013974
13020 -0.9466355700000001 9.661810140000002 -1.3045338 -0.024509 -0.004133 -0.010848
13040 -0.9695321100000001 9.6710904 -1.3564777500000003 -0.032977 0.011872 -0.00986
13060 -1.05754743 9.6972831 -1.40512554 -0.030881 -0.004085 -0.017302
13080 -1.1154754800000002 9.74114361 -1.4599143900000002 -0.022284 0.024588 -0.002324
13100 -1.0687798800000001 9.74698056 -1.39509972 -0.020203 -0.0019920000000000003 -0.017230000000000002
13120 -1.0785114 9.81239364 -1.3181598900000002 -0.019127 0.004379 -0.012958
13140 -1.1439244800000001 9.817485029999999 -1.2913687800000002 -0.021261 0.012875 -0.004438
13160 -1.14646527 9.80385894 -1.38716343 -0.019084 0.036248 0.009434
13180 -1.19286657 9.724074210000001 -1.28044044 -0.020179 0.030921 0.010502
13200 -1.08748755 9.69039648 -1.1569423499999998 -0.021237 0.029872000000000006 0.007291
13220 -1.40782329 9.70312005 -1.2796850700000002 -0.021217 0.036255 0.009419
13240 -1.3620204000000002 9.696537540000001 -1.2600748800000001 -0.021241 0.03199 0.010493
13260 -1.29914811 9.69683184 -1.0880859600000001 -0.009496 0.031957 0.008438
13280 -1.2919671900000003 9.78934014 -1.0916764200000002 -0.010496 0.050058 0.011613
13300 -1.3892627700000002 9.873166590000002 -1.2651662700000001 -0.01695 0.03624 0.009449
13320 -1.4383618200000001 9.87735546 -1.21427199 -0.01695 0.033057 0.006249
13340 -1.32249591 9.75102228 -1.10740185 -0.020122 0.038399 0.005151
13360 -1.37668635 9.748922940000002 -1.12505985 -0.02115 0.051169 0.009401
13380 -1.41815322 9.74578374 -1.19166975 -0.025389 0.059697 0.011497
13400 -1.17970155 9.68530509 -1.18777518 -0.024394 0.041593 0.00939
13420 -1.47667968 9.736199370000001 -1.18403757 -0.02227 0.040516 0.010475
13440 -1.3069274400000002 9.81164808 -1.15454871 -0.023246 0.060759 0.010442
13460 -1.26187992 9.81209934 -1.1666738700000001 -0.019045 0.046892 0.011557
13480 -1.23927768 9.70985952 -1.13479137 -0.015936000000000002 0.024519 0.009471
13500 -1.3218975000000002 9.736954740000002 -1.1782006200000001 -0.016998 0.02771 0.011596
13520 -1.32414399 9.816141060000001 -1.16577135 -0.021213 0.044747 0.016886
13540 -1.26052614 9.76240188 -1.16981307 -0.016936 0.050046 0.020114
13560 -1.2573869400000002 9.751169430000001 -1.1231174700000002 -0.012721 0.039374 0.021225
13580 -1.2750449400000001 9.78185511 -1.1870296200000001 -0.010544 0.04471 0.016961
13600 -1.24167132 9.775272600000001 -1.0792569600000002 -0.011616 0.04471 0.018021
13620 -1.28986785 9.799522920000001 -1.11368025 -0.013821 0.026616 0.015893
13640 -1.25394363 9.76554108 -1.20140127 -0.006353 0.023407 0.012744
13660 -1.2663630900000002 9.77781339 -1.09033245 -0.008458 0.026623 0.009521
13680 -1.22460192 9.80281908 -1.1304455400000002 -0.011668 0.019199 0.0041670000000000006
13700 -1.1964668400000003 9.74488122 -1.04257737 -0.02239 0.006456999999999999 0.00304
13720 -1.21053438 9.784248750000001 -1.0916764200000002 -0.020237 0.013894 0.00625
13740 -1.2641166000000001 9.73979964 -1.1539503 -0.018074 0.025583 0.011591
13760 -1.16337771 9.73021527 -1.1094913800000001 -0.011716 0.015972999999999998 0.011648
13780 -1.1593359900000002 9.780511140000002 -1.11532833 -0.006425 0.005306 0.010631
13800 -1.15275348 9.752817510000002 -1.17251082 -0.003157 0.020209 0.010634
13820 -1.11592674 9.77377167 -1.10080953 -0.001009 0.024458 0.011712
13840 -1.06354134 9.7812567 -1.0388397600000001 -0.011745 0.011704 0.01379
13860 -1.13508567 9.76809168 -1.07655921 -0.012817 0.010642 0.013784
13880 -1.2775955399999999 9.72542799 -1.0904796 -0.005253 0.035104 0.01701
13900 -1.27384812 9.72691911 -1.12341177 0.003368 0.052127 0.014912
13920 -1.15409745 9.83934171 -1.0877916599999997 0.00864 0.030833 0.007498
13940 -1.07296875 9.889186320000002 -1.14032421 0.010774 0.028704 0.005379999999999999
13960 -1.13464422 9.85550859 -1.1049984000000002 0.008688 0.040425 0.006418000000000001
13980 -1.1123362800000003 9.76883724 -1.0279114200000001 -0.001937 0.050049 0.006332
14000 -1.1461709699999998 9.6859035 -0.94468338 -0.009429 0.044749 0.006286
14020 -1.19526021 9.683666820000001 -1.0464719400000002 -0.006233 0.041551 0.004176
14040 -1.18238949 9.763294590000001 -1.08000252 -0.01151 0.050108 -0.000145
14060 -1.0955709900000001 9.7866522 -1.0523088900000002 -0.0083 0.05435 0.002009
14080 -1.08928278 9.81269775 -0.99423369 -0.002985 0.051131 0.003118
14100 -1.18343916 9.78993855 -1.0000706400000001 0.003392 0.044721 0.0021030000000000003
14120 -1.1593359900000002 9.77856876 -1.0340524800000002 0.001273 0.047925 0.002084
14140 -1.09287324 9.780511140000002 -1.05964677 0.002393 0.061761 0.00421
14160 -1.1169764100000001 9.75685923 -1.0431855900000004 0.006693999999999999 0.069203 0.004231
14180 -1.22415066 9.81793629 -1.00784997 0.007731999999999998 0.060685 0.002113
14200 -1.19630988 9.80490861 -1.05949962 0.004531 0.060697 0.00209
14220 -1.14302196 9.80222067 -1.0178856 -0.000851 0.049002 0.000999
14240 -1.26815832 9.78290478 -1.00186587 0.002297 0.035151 -0.001097
14260 -1.2686095800000001 9.76434426 -1.06249167 0.001206 0.033011 0.0021030000000000003
14280 -1.15829613 9.744439770000001 -0.98151012 -0.001937 0.047927 0.004198
14300 -1.12281336 9.795029940000001 -0.9361486800000001 0.004483 0.053227 0.005304
14320 -1.14706368 9.79802199 -0.9924384600000001 0.013028 0.055328 0.005361
14340 -1.1085986700000001 9.847268190000001 -1.09437417 0.014094999999999996 0.055324 0.005369
14360 -1.1192229 9.803260530000001 -1.01683593 0.017329 0.060648 0.003248
14380 -1.14871176 9.771230880000001 -0.9547190100000001 0.013114 0.068136 -0.001064
14400 -1.1493101700000001 9.76599234 -1.11218913 0.008813 0.061755999999999985 -1.8e-05
14420 -1.15844328 9.799817220000001 -1.1115907199999997 0.004459 0.042596 -2.3e-05
14440 -1.15859043 9.77826465 -1.0398894300000001 0.0044210000000000005 0.033013 -0.00108
14460 -1.17251082 9.78485697 -0.9879454800000002 0.003378 0.038343 -0.001094
14480 -1.19331783 9.818534699999999 -1.0731159000000003 0.008693000000000001 0.037246 0.002149
14500 -1.13284899 9.84262806 -1.07086941 0.009717 0.027655 0.002169
14520 -1.0716247800000003 9.73784745 -1.0159334100000001 0.018304 0.039343 0.0022140000000000003
14540 -1.11023694 9.649537830000002 -0.94379067 0.010904 0.053222000000000005 0.001076
14560 -1.11592674 9.71763885 -1.0340524800000002 0.011951 0.047896 2.2e-05
14580 -1.10231046 9.7986204 -1.08524106 0.010865 0.038334 -0.005314
14600 -1.12401018 9.82946304 -0.9767228400000001 0.008727 0.036215 -0.0063950000000000005
14620 -1.13254488 9.843677730000001 -1.05754743 0.007684000000000002 0.04685 -0.001075
14640 -1.17116685 9.80445735 -1.13508567 0.008727 0.042581 6e-06
14660 -1.24421211 9.764491410000002 -1.0865948400000003 0.008698000000000001 0.035128 -0.001052
14680 -1.25483634 9.739348380000001 -1.05410412 0.011937 0.045761 0.001093
14700 -1.2237092100000002 9.763893 -1.06758306 0.015171 0.055329 0.00324
14720 -1.12955283 9.795334050000001 -1.06937829 0.016271 0.055355 -0.004229999999999999
14740 -1.08404424 9.76374585 -1.05395697 0.017286000000000003 0.043633 -0.004208
14760 -1.10904012 9.747726120000001 -1.05694902 0.01197 0.051096 -0.00105
14780 -1.0479728700000002 9.75731049 -1.06653339 0.008803 0.062808 0.003186
14800 -1.06787736 9.760155390000001 -1.05440823 0.008813 0.06387799999999999 0.002116
14820 -1.14153084 9.811343970000001 -1.10021112 0.010889 0.047904 -0.0010539999999999998
14840 -1.20828789 9.79368597 -1.1051553600000001 0.017276 0.043625 -0.002072
14860 -1.1642802300000001 9.80550702 -1.11907575 0.01729 0.051065 0.0021920000000000004
14880 -1.2009500100000001 9.77512545 -1.03165884 0.015166 0.053203 0.002174
14900 -1.1945146500000001 9.737101890000002 -1.0496209500000002 0.00556 0.050049 -2.5e-05
14920 -1.1918169 9.74143791 -1.08315153 0.009832 0.053221 0.002137
14940 -1.13508567 9.76044969 -1.08494676 0.0066170000000000005 0.046854 -0.001082
14960 -1.08599643 9.79457868 -1.0353964500000001 0.009856 0.046876 -0.009605
14980 -1.15724646 9.78500412 -1.0532114099999998 0.009923 0.064973 -0.006423000000000001
15000 -1.17774936 9.787544910000001 -1.16607546 0.007789 0.06604199999999999 -0.005371
15020 -1.1064993300000001 9.807302250000001 -1.1308968 0.009851 0.046872 -0.008537000000000001
15040 -1.14017706 9.793087560000002 -1.11817323 0.008813 0.06069500000000001 -0.001084
15060 -1.2356774099999999 9.76404996 -1.09392291 0.009966 0.087293 0.006367
15080 -1.1886777000000002 9.76195062 -1.1192229 0.006708 0.074521 0.006361
15100 -1.1223621000000001 9.77976558 -1.0788057 0.003540999999999999 0.084111 0.008463
15120 -1.15904169 9.75326877 -1.12640382 0.000427 0.109663 0.014818
15140 -1.15244937 9.77661657 -1.12536396 0.003646 0.114973 0.015901
15160 -1.17341334 9.80266212 -1.1683219500000002 0.013263 0.119197 0.017031
15180 -1.1596401 9.81449298 -1.1770038 0.011196 0.13624 0.019132
15200 -1.09707192 9.74473407 -1.11787893 0.012335 0.155398 0.02232
15220 -1.11592674 9.77677353 -1.14571971 0.010278 0.171389 0.021217
15240 -1.14900606 9.78515127 -1.15170381 0.008192 0.178866 0.017988
15260 -1.1915225999999999 9.735453810000001 -1.1858328 0.003948 0.186329 0.020085
15280 -1.24002324 9.75312162 -1.19945889 0.005092 0.206553 0.023272
15300 -1.2695121 9.78829047 -1.24316244 0.01045 0.213982 0.025436
15320 -1.1892761100000002 9.719738190000001 -1.23029172 0.016751 0.200077 0.034044
15340 -1.1921210100000001 9.76883724 -1.17894618 0.018851 0.201101 0.042603
15360 -1.22819238 9.74547963 -1.25708283 0.018837 0.202149 0.046874
15380 -1.16308341 9.73231461 -1.25543475 0.018813 0.194701 0.044747
15400 -1.1454156 9.70282575 -1.17745506 0.01665 0.183012 0.039406
15420 -1.2590350200000002 9.72227898 -1.18853055 0.02197 0.164943 0.024511
15440 -1.25259966 9.735306660000001 -1.25035317 0.034844 0.16708499999999998 0.010712
15460 -1.18657836 9.72183753 -1.1945146500000001 0.047647 0.161735 0.0054670000000000005
15480 -1.2307429799999998 9.743684400000001 -1.21427199 0.050785 0.14363099999999998 0.001239
15500 -1.27864521 9.78649524 -1.2298404600000001 0.04979 0.164919 0.006546
15520 -1.2650191200000003 9.80222067 -1.19362194 0.042408 0.185181 0.007536
15540 -1.2567885300000001 9.78215922 -1.16997003 0.050981 0.191551 0.005452
15560 -1.2769971300000003 9.77991273 -1.16473149 0.055369000000000015 0.208619 -0.004153
15580 -1.2960089099999998 9.82661814 -1.13120091 0.059689 0.209712 -0.014807
15600 -1.25543475 9.75671208 -1.08494676 0.059722 0.204436 -0.027619
15620 -1.1805942600000001 9.79802199 -1.1334474 0.067176 0.198032 -0.030763
15640 -1.1132388 9.77302611 -1.12835601 0.05748300000000001 0.182069 -0.026537
15660 -1.09183338 9.73979964 -1.13448726 0.048824 0.172439 -0.008426000000000001
15680 -1.1051553600000001 9.74428281 -1.12221495 0.039169 0.185158 0.016059999999999998
15700 -1.05125922 9.80640954 -1.10963853 0.032634 0.179756 0.04059
15720 -1.01743434 9.79562835 -1.1918169 0.045278 0.155167 0.051391999999999986
15740 -1.0186311599999998 9.82241946 -1.18972737 0.062362 0.16467 0.057909
15760 -1.10559681 9.845629920000002 -1.1193700500000001 0.083656 0.156069 0.059137
15780 -1.1557455300000001 9.83634966 -1.22115861 0.091091 0.137976 0.048529
15800 -1.18972737 9.821821049999999 -1.2361286699999998 0.077409 0.175325 0.044113
15820 -1.2813331500000003 9.836948069999998 -1.23822801 0.070113 0.222189 0.052548
15840 -1.24750827 9.75356307 -1.25514045 0.076538 0.228554 0.053653
15860 -1.2213057600000001 9.77512545 -1.14362037 0.082915 0.218961 0.049437
15880 -1.2513930300000002 9.8159841 -1.16473149 0.06262100000000001 0.209462 0.045034
15900 -1.2747506400000002 9.81344331 -1.2000573 0.046695 0.219135 0.037433
15920 -1.31725737 9.75326877 -1.22879079 0.036136 0.230941 0.024526
15940 -1.31201883 9.73635633 -1.21383054 0.018076 0.228951 0.005174
15960 -1.22115861 9.77437008 -1.23822801 0.000997 0.215209 -0.006678
15980 -1.08344583 9.703718460000001 -1.2927127500000002 -0.014948 0.236536 0.001729
16000 -0.95666139 9.672287220000001 -1.2760946100000001 -0.030922 0.264204 0.022946
16020 -0.8240400000000001 9.68186178 -1.33447392 -0.026564 0.304588 0.043221
16040 -0.76176612 9.7234758 -1.34345988 -0.031913 0.315204 0.057057
16060 -0.8146027800000001 9.78874173 -1.5199417800000004 -0.031985 0.299225 0.057077
16080 -0.85681521 9.81254079 -1.58116599 -0.029789 0.308822 0.052807000000000014
16100 -0.9424368900000001 9.78964425 -1.5934383 -0.027712 0.298153 0.054972
16120 -1.13778342 9.74668626 -1.60047207 -0.011719 0.282174 0.041217
16140 -1.25229555 9.703718460000001 -1.47577716 -0.005169 0.313052 0.039087
16160 -1.1868824699999998 9.82661814 -1.5464385900000002 0.008633 0.285358 0.0264
16180 -1.1322407700000001 9.88035732 -1.7431290900000003 -0.000897 0.28333400000000003 0.008176000000000001
16200 -1.18358631 9.81404172 -1.6090067700000001 -0.017756 0.31435 -0.008004
16220 -1.2633710399999998 9.735306660000001 -1.3974933600000001 -0.022985 0.331438 -0.014472
16240 -1.2710032199999999 9.74099646 -1.45886472 -0.030371 0.332598 -0.031617
16260 -1.17789651 9.73021527 -1.55706282 -0.037777 0.329496 -0.048756
16280 -1.17026433 9.755662410000001 -1.6278615900000002 -0.039796 0.34339899999999995 -0.060538
16300 -1.16068977 9.664949340000001 -1.6393883400000002 -0.062214 0.341343 -0.059624
16320 -1.05500664 9.61376076 -1.6985132100000002 -0.07393 0.360499 -0.044775
16340 -0.94408497 9.57872925 -1.65330873 -0.079198 0.394529 -0.025628
16360 -0.8604154800000001 9.62902512 -1.7432762400000001 -0.080327 0.388112 -0.01815
16380 -0.80502822 9.57723813 -1.69103799 -0.081413 0.388098 -0.013885
16400 -0.8157996000000001 9.60252831 -1.7863813800000001 -0.082475 0.394472 -0.008559
16420 -0.6643233900000001 9.60657003 -1.8021068100000002 -0.094325 0.364703 -0.012877
16440 -0.62958618 9.719591040000001 -1.88697312 -0.105989 0.386028 -0.007644
16460 -0.59501574 9.672434370000001 -1.89969669 -0.114404 0.423299 0.002931
16480 -0.7202992500000001 9.71120349 -1.97335017 -0.109281 0.361555 -0.011909
16500 -0.47541222 9.80057259 -1.96646355 -0.105778 0.449876 0.009367
16520 -0.64725399 9.831101310000001 -1.9711036800000001 -0.119705 0.445629 0.017821
16540 -0.7087725 9.787849020000001 -2.00433015 -0.126082 0.454161 0.02097
16560 -0.62929188 9.77092677 -2.05237953 -0.136971 0.382915 -0.0014470000000000002
16580 -0.58453866 9.76972995 -2.03456457 -0.137717 0.483999 0.028328
16600 -0.62075718 9.67378815 -1.9287342900000002 -0.14733800000000002 0.486138 0.034667
16620 -0.6153714899999999 9.59579865 -2.01076551 -0.14231 0.424308 0.041191000000000005
16640 -0.60040143 9.636814260000001 -1.8958119300000003 -0.15623199999999998 0.416883 0.045376
16660 -0.5565409200000001 9.69249582 -1.90718172 -0.166901 0.434957 0.063438
16680 -0.49098069000000005 9.784405710000001 -1.84461354 -0.148831 0.424224 0.067851
16700 -0.5029587000000001 9.71404839 -1.67291892 -0.128695 0.382655 0.05629500000000001
16720 -0.5641731000000002 9.64638882 -1.67023098 -0.120227 0.357101 0.045704
16740 -0.6084848700000001 9.67438656 -1.7071950599999999 -0.125888 0.25073 0.011618
16760 -0.58767786 9.712253160000001 -1.61798292 -0.151531 0.208345 -0.02269
16780 -0.66447054 9.69743025 -1.6217303400000003 -0.157654 0.300922 0.008126999999999999
16800 -0.59621256 9.73739619 -1.36530675 -0.139666 0.30709200000000003 0.047769
16820 -0.5149269000000001 9.683666820000001 -1.3507879500000002 -0.14113 0.21655700000000006 0.045738
16840 -0.97043463 9.68546205 -1.4576679000000001 -0.146618 0.178243 0.041476
16860 -0.4176313200000001 9.86343507 -1.21651848 -0.120105 0.155728 0.054509
16880 -0.58423455 9.90310671 -1.4792204699999998 -0.091362 0.134352 0.04726
16900 -0.52496253 9.76149936 -1.39464846 -0.069082 0.102333 0.043183
16920 -0.74230308 9.63801108 -1.26652005 -0.06588200000000001 0.097017 0.037871
16940 -0.36823797 9.71015382 -1.1105410500000001 -0.05505 0.125772 0.030433
16960 -0.41433516000000004 9.71854137 -1.22819238 -0.051936 0.10022 0.024078
16980 -0.38515041 9.8968185 -1.3647083400000002 -0.0381 0.092714 0.024184
17000 -0.35521029 9.86299362 -1.15454871 -0.04454 0.08315299999999999 0.023083000000000003
17020 -0.27647523 9.83140542 -1.18523439 -0.058586 0.040604 0.019835
17040 -0.21495672000000002 9.771230880000001 -1.18133982 -0.052271000000000005 0.016102 0.014569
17060 -0.32662395 9.79802199 -1.15275348 -0.0491 -0.000911 0.0039310000000000005
17080 -0.3559558500000001 9.88035732 -1.1247655500000002 -0.051195 0.007619 0.003906
17100 -0.36314658000000005 9.8854389 -1.17925029 -0.046985 -0.004118 0.005018
17120 -0.32827203 9.78829047 -0.98824959 -0.04267 0.009702 0.008235
17140 0.04595004000000001 9.890677440000001 -0.8282288700000001 -0.017108 0.013819 0.022295
17160 0.26808768000000005 9.78814332 -1.04257737 0.005301 0.01905 0.026718
17180 -0.06167547 9.68336271 -1.11218913 0.025595 0.026427 0.028987
17200 -0.05883057 9.72662481 -0.9547190100000001 0.060552 -0.016358 0.042105
17220 -0.023504760000000003 9.86223825 -0.94752828 0.07112 -0.032399000000000004 0.048608
17240 -0.1357704 9.995467860000002 -1.02432096 0.073254 -0.043017 0.037955
17260 -0.22108797000000002 9.9315459 -1.11787893 0.06054800000000001 -0.041826 0.017568
17280 -0.26420292 9.83185668 -1.0728215999999997 0.04664 -0.06197100000000001 0.005746
17300 -0.2956341600000001 9.85745097 -0.83975562 0.034943 -0.05553 0.00352
17320 -0.28111536000000004 9.82212516 -0.90621837 0.034972 -0.049138 0.003512
17340 -0.21285737999999998 9.922864050000001 -0.89498592 0.045568 -0.06515399999999999 0.003606
17360 -0.22168638000000002 9.974356740000003 -0.65787822 0.045616 -0.06299 -0.004942
17380 -0.27901602 9.904303530000002 -0.8214894 0.048898 -0.044891 -0.004942
17400 -0.24818319 9.82241946 -0.7940998800000001 0.033962 -0.035289999999999995 0.004555
17420 -0.2860596 9.80595828 -0.68408073 0.011553 -0.027789 0.012935
17440 -0.32093415000000003 9.87496182 -0.6956074800000001 0.011525 -0.030998 0.016144
17460 -0.28680516 9.87122421 -0.7213489200000001 0.023289 -0.026769 0.014084
17480 -0.33305931000000005 9.832602240000002 -0.69336099 0.019069 -0.023528 0.006573000000000001
17500 -0.30506157000000006 9.77287896 -0.7039852200000001 0.025423 -0.04057 0.00023
17520 -0.30462012 9.70551369 -0.83076966 0.030714 -0.050176 0.000279
17540 -0.31075136999999997 9.70551369 -0.73227726 0.022088 -0.06614199999999999 0.004512
17560 -0.23995260000000002 10.085876820000001 -1.04752161 0.024351 -0.033143 0.008758
17580 -0.1935513 10.20203703 -1.04393115 0.022313 -0.009708 0.010851
17600 -0.28515708 9.907148430000001 -0.87582699 0.014759 -0.028857 0.010822
17620 -0.34877493 9.803260530000001 -0.8750814299999999 0.011587 -0.026698000000000003 0.006523999999999999
17640 -0.35311095000000003 9.88888221 -0.92387637 0.023471 0.009467 0.009766
17660 -0.27722079 9.93259557 -0.8858626199999999 0.029858 0.011554 0.015149
17680 -0.27333603 9.95280417 -0.81131643 0.03081 -0.015077000000000004 0.014121000000000003
17700 -0.25956279 9.99126918 -1.02446811 0.027782 0.0201 0.010851
17720 -0.34743096000000007 9.90100737 -1.04617764 0.013932 0.023349 0.009681
17740 -0.36135135 9.83470158 -1.0086053400000003 0.017185 0.032934 0.007555
17760 -0.34368354000000007 9.83934171 -1.0991614500000002 0.040723 0.037155 -0.002968
17780 -0.25581537 9.83798793 -0.9143018100000001 0.03968 0.035058 -0.01045
17800 -0.24144372 9.83679111 -1.02327129 0.034403 0.04786 -0.010503
17820 -0.21465261000000002 9.911641410000001 -1.02327129 0.030222 0.064928 -0.012691
17840 -0.24653511000000003 9.85715667 -1.03075632 0.031203 0.041505 -0.016927
17860 -0.26973576 9.79323471 -1.08045378 0.038652 0.036157 -0.017936
17880 -0.24309180000000002 9.795775500000001 -1.05964677 0.033389 0.058521 -0.011592
17900 -0.26824464000000003 9.849367529999999 -1.1106882 0.026916 0.047869 -0.006283
17920 -0.2168991 9.899064990000001 -1.13120091 0.020467 0.037239 -0.006314
17940 -0.22947552000000002 9.844727400000002 -1.0204263900000001 0.018357 0.041512 -0.007403
17960 -0.34547877 9.828109260000002 -1.1322407700000001 0.010927 0.048999 -0.008532
17980 -0.3468325500000001 9.80505576 -1.14137388 0.006636 0.042627 -0.009622
18000 -0.22752333 9.799670070000001 -1.1258054100000001 0.010856 0.025593 -0.01598
18020 -0.15732297 9.87196977 -1.1422764000000003 0.004459 0.016071000000000002 -0.026695
18040 -0.26525259 9.89816247 -1.17535572 0.006622 0.021394 -0.027755
18060 -0.32452461 9.83963601 -1.1656242 0.010851 0.020284 -0.020246
18080 -0.35655426000000007 9.80281908 -1.1078433 0.007645 0.027718 -0.011733
18100 -0.27662238 9.870772950000003 -1.16473149 -0.01051 0.037313 0.002015
18120 -0.28111536000000004 9.86568156 -1.1770038 -0.025542 0.029853 0.015806999999999998
18140 -0.3617928 9.85654845 -1.13269203 -0.001014 0.027637 0.015981
18160 -0.35566155000000005 9.832307940000002 -1.1946618 0.01916 -0.004349 0.005481000000000001
18180 -0.33500169 9.81538569 -1.26741276 0.005301 -0.007475 4.7e-05
18200 -0.29039562 9.8532621 -1.2590350200000002 0.003249 0.010641 9e-06
18220 -0.33485454 9.83185668 -1.27864521 0.010712 0.008489 -0.001004
18240 -0.3097017 9.81823059 -1.1632305600000001 0.004157 -0.022394 0.002194
18260 -0.24968412 9.811795230000001 -1.14017706 0.004172 -0.008588 0.012859
18280 -0.28021284 9.84592422 -1.3028857200000001 0.011635 -0.008619 0.013978999999999998
18300 -0.29278926000000005 9.86883057 -1.25619012 0.006296 -0.012847999999999998 0.010743
18320 -0.32991030000000005 9.79712928 -1.11368025 0.008453 -0.014956 0.003283
18340 -0.32557428000000005 9.81074556 -1.22460192 0.007382 -0.023445 -0.004190999999999999
18360 -0.29039562 9.83065986 -1.2031965 0.002076 -0.024462 -0.011705
18380 -0.29548701 9.834995880000001 -1.2798420300000002 -0.001168 -0.038282 -0.015982
18400 -0.33126408 9.863739180000001 -1.2337350300000003 0.004186 -0.030856 -0.01275
18420 -0.33066567 9.834995880000001 -1.17116685 -0.008544 -0.01165 -0.009659
18440 -0.32167971 9.808351920000002 -1.20334365 -0.01497 -0.014832 -0.0075629999999999985
18460 -0.34368354000000007 9.73410984 -1.12715919 -0.012822 -0.016947999999999998 -0.012887
18480 -0.26494848000000004 9.7582032 -1.1710197 -0.006425 -0.018036 -0.01284
18500 -0.23935419000000002 9.81373761 -1.1567952000000001 -0.010659 -0.005259000000000001 -0.007545
18520 -0.28575549 9.865985669999999 -1.18882485 -0.015955 0.002221 -0.00866
18540 -0.41523768 9.85955031 -1.3028857200000001 -0.012793 -0.005252000000000001 -0.007559999999999998
18560 -0.3583593 9.81389457 -1.21532166 -0.009506 0.012851 -0.008629000000000001
18580 -0.31494024000000004 9.85266369 -1.15859043 -0.018017 0.013963 -0.012962
18600 -0.33081282000000006 9.80790066 -1.10844171 -0.007315 0.022444 -0.01183
18620 -0.3634408800000001 9.80521272 -1.18807929 -0.0030280000000000003 0.028812 -0.009672
18640 -0.30371760000000003 9.83410317 -1.1846359800000001 -0.014696 0.04801 -0.005505
18660 -0.3210813 9.84487455 -1.2025980900000002 -0.017873 0.057592 -0.001267
18680 -0.35521029 9.80940159 -1.17325638 -0.009391 0.039478 -0.007594
18700 -0.35071731 9.82032993 -1.19271942 -0.009372 0.038434 -0.012933000000000002
18720 -0.34667559 9.870920100000001 -1.20334365 -0.009329 0.049083 -0.011878
18740 -0.35730963 9.864484740000002 -1.18898181 -0.012524 0.05122 -0.010835
18760 -0.35955612 9.83410317 -1.27684017 -0.011481 0.048012 -0.008687
18780 -0.31494024000000004 9.843677730000001 -1.30228731 -0.012505 0.059725 -0.006573000000000001
18800 -0.27317907 9.82766781 -1.13852898 -0.018897 0.05763400000000001 -0.010888
18820 -0.32542713 9.83035575 -1.2325382100000002 -0.015715 0.052301 -0.011927
18840 -0.36554022 9.78560253 -1.1972124 -0.015725 0.048048 -0.014058
18860 -0.36329373000000004 9.7894971 -1.23059583 -0.015706 0.051248 -0.01513
18880 -0.32871348000000006 9.81793629 -1.1787990300000002 -0.016825 0.035289999999999995 -0.019391
18900 -0.33335360999999997 9.870920100000001 -1.22879079 -0.017830000000000002 0.051264 -0.017282
18920 -0.35221824000000007 9.843383430000001 -1.29615606 -0.016715 0.061913 -0.017287999999999998
18940 -0.3526695 9.82990449 -1.14347322 -0.025279 0.056612 -0.016272
18960 -0.37287810000000005 9.8387433 -1.1546958600000001 -0.03488 0.061951 -0.011005
18980 -0.36299943 9.83006145 -1.1771509500000001 -0.030551 0.08109 -0.005658
19000 -0.3731724 9.822272309999999 -1.2117312 -0.023054 0.08745499999999999 -0.005614
19020 -0.3752717400000001 9.79383312 -1.13464422 -0.021934 0.08962 -0.015223
19040 -0.35625996000000004 9.82497006 -1.12850316 -0.004927 0.08101699999999999 -0.009752
19060 -0.37661571000000005 9.88753824 -1.20304935 -0.0124 0.083161 -0.006603
19080 -0.40894947000000004 9.854753220000003 -1.1139843600000001 -0.017782 0.076771 -0.002359
19100 -0.36224406000000003 9.83290635 -1.1088929699999999 -0.019949 0.06932200000000001 -0.002365
19120 -0.37182843 9.81987867 -1.08988119 -0.017854 0.053365 -0.009807
19140 -0.37018035000000005 9.84053853 -1.14976143 -0.014687 0.041653 -0.014043
19160 -0.37123002000000005 9.835751250000001 -1.15035984 -0.014706 0.031026 -0.020439
19180 -0.36240102 9.85146687 -1.11023694 -0.009367 0.036316 -0.016135
19200 -0.36673704 9.8854389 -1.16997003 -0.014663 0.050162 -0.010849
19220 -0.41164722000000004 9.84382488 -1.12760064 -0.013653 0.038436 -0.009759
19240 -0.39383226000000005 9.80236782 -1.13388885 -0.009381 0.038426 -0.010797
19260 -0.40311252 9.80131815 -1.13284899 -0.011515 0.041616 -0.007611
19280 -0.38424789000000004 9.85550859 -1.07506809 -0.013663 0.039489 -0.006555
19300 -0.39068325000000004 9.882750960000001 -1.03510215 -0.015773 0.046945 -0.004443
19320 -0.44157753 9.858951900000001 -1.06413975 -0.023217 0.049114 -0.007703
19340 -0.44936667 9.8302086 -1.06368849 -0.029719 0.022522 -0.011987
19360 -0.40131729000000005 9.80251497 -1.11982131 -0.030853 0.002307 -0.01731
19380 -0.41418801000000005 9.796530870000002 -1.05620346 -0.041445 0.013022 -0.023807
19400 -0.52121511 9.76135221 -1.0181799 -0.039335 0.005567 -0.025919
19420 -0.40670298000000005 9.811049670000001 -1.20694392 -0.03513 -0.012541 -0.03014
19440 -0.34188831000000003 9.83320065 -1.16038566 -0.030881 -0.013634 -0.026904
19460 -0.33455042999999995 9.860590170000002 -1.08958689 -0.034049 -0.008288 -0.029069
19480 -0.34458605999999997 9.831258270000001 -1.070271 -0.02759 0.004473 -0.02904
19500 -0.37168128 9.89412075 -1.15065414 -0.030886 -0.022126 -0.03437
19520 -0.37766538 9.858951900000001 -1.11682926 -0.045837 -0.017843 -0.027003
19540 -0.39173292000000004 9.84098979 -1.16457453 -0.052257000000000005 -0.022081 -0.027042
19560 -0.38259981000000004 9.82272357 -1.1758069800000002 -0.04588 -0.025308 -0.024857
19580 -0.36314658000000005 9.80865603 -1.13568408 -0.046952 -0.024248 -0.02273
19600 -0.40385808000000006 9.791439480000001 -1.16801784 -0.056481 -0.00293 -0.017482
19620 -0.37512459000000004 9.841735350000002 -1.17999585 -0.051161 -0.0019 -0.013174000000000002
19640 -0.38574882000000005 9.861041430000002 -1.14871176 -0.041612 -0.010469 -0.009891
19660 -0.37960776 9.866878380000001 -1.1859799500000001 -0.042627 0.000192 -0.01098
19680 -0.40565331 9.796678020000002 -1.14302196 -0.023428 -0.003063 -0.012978
19700 -0.37587015 9.819133110000001 -1.0910780100000002 -0.013816 -0.007331999999999998 -0.019315
19720 -0.40849821 9.85250673 -1.1424235500000002 -0.019108 0.006518 -0.015097
19740 -0.38634723000000004 9.89726976 -1.12670793 -0.030862 0.0033590000000000004 -0.014107
19760 -0.40371093 9.915830280000002 -1.1454156 -0.033087 -0.021117 -0.018364
19780 -0.36898353 9.82975734 -1.1225190600000001 -0.034164 -0.021122 -0.016235
19800 -0.42646032 9.84802356 -1.19226816 -0.032924 0.02359 -0.009874
19820 -0.39921795000000004 9.85146687 -1.1741589000000001 -0.023337 0.017177 -0.013004
19840 -0.44666892 9.828109260000002 -1.14780924 -0.012735 -0.003079 -0.018245
19860 -0.39113451 9.8680752 -1.08883152 -0.009573 -0.012673 -0.019279
19880 -0.44966097000000005 9.83679111 -1.0490225400000002 -0.008458 -0.002024 -0.019284
19900 -0.49636638 9.7610481 -1.01085183 -0.004148 0.010731 -0.016066
19920 -0.39532338 9.751169430000001 -0.9879454800000002 -0.011573 0.019284 -0.017197
19940 -0.3731724 9.88469334 -0.9680409900000001 -0.01053 0.00971 -0.02145
19960 -0.39158577000000006 9.9025083 -0.88615692 -0.012591 0.020391 -0.02682
19980 -0.4596966 9.83425032 -0.92806524 -0.008381999999999999 0.012898 -0.02144
20000 -0.47990520000000003 9.787544910000001 -0.90442314 -0.013763999999999998 0.006508 -0.017196
20020 -0.48139632000000004 9.75716334 -1.01728719 -0.014903 -0.007345 -0.01505
20040 -0.42241860000000003 9.70776018 -0.9607031100000001 -0.013831 -0.005222 -0.013977000000000002
20060 -0.40131729000000005 9.75027672 -0.84439575 -0.009563 -0.000993 -0.00968
20080 -0.4980144600000001 9.86658408 -1.02312414 -0.012687 0.019245 -0.006523
20100 -0.5363323200000001 9.87032169 -0.95666139 -0.009525 0.013895 -0.0032890000000000003
20120 -0.48679182000000004 9.866436929999999 -0.94603716 -0.012678 0.023498 -0.004392
20140 -0.48813579 9.85759812 -0.9577110600000001 -0.014811 0.019261 -0.008674
20160 -0.49846572000000006 9.90100737 -0.94827384 -0.019117 0.007571 -0.011894
20180 -0.51537816 9.92900511 -0.93750246 -0.01285 -0.022279 -0.011812
20200 -0.5439645000000001 9.88858791 -0.74799288 -0.009702 -0.03613 -0.013908000000000002
20220 -0.6976970100000001 9.879160500000001 -0.9654903900000001 -0.008621 -0.039304 -0.020306
20240 -0.73362123 9.86134554 -0.9404945100000001 -0.007520999999999998 -0.037156 -0.025642
20260 -0.7286868000000001 9.895023270000001 -0.83241774 -0.0074150000000000015 -0.014781 -0.026738
20280 -0.66626577 9.88708698 -0.74978811 -0.007372 -0.003072 -0.024617
20300 -0.66102723 9.91552617 -0.76790718 -0.013773 0.001195 -0.020394
20320 -0.7213489200000001 9.923913720000002 -0.7914021300000001 -0.022256 0.017186 -0.016201
20340 -0.75982374 9.808499070000002 -0.8340658200000001 -0.029815 0.000156 -0.013027
20360 -0.7143151499999999 9.816141060000001 -0.83540979 -0.030992 -0.020098 -0.008736
20380 -0.69096735 9.819427410000001 -0.8608569300000001 -0.032121 -0.031820999999999995 -0.006593000000000001
20400 -0.69245847 9.76659075 -0.7446967200000001 -0.030002 -0.039268 -0.010841
20420 -0.75906837 9.68470668 -0.73916388 -0.026787 -0.039266 -0.014024000000000002
20440 -0.74110626 9.707917140000001 -0.7825731300000001 -0.029021 -0.070117 -0.022546
20460 -0.7168559400000001 9.91298538 -0.7912549800000002 -0.019208000000000003 -0.014791 -0.014002
20480 -0.72569475 9.98782587 -0.7005419100000001 -0.003225 -0.020169 -0.014952000000000003
20500 -0.73077633 10.006994610000001 -0.80367444 0.011707 -0.009616 -0.003111
20520 -0.7502393700000001 9.85206528 -0.70608456 0.010669 0.008451 0.008609
20540 -0.71670879 9.7866522 -0.7764320700000001 0.010726 0.023356 0.010727
20560 -0.67764537 9.88634142 -0.7562234700000001 0.011759 0.014834 0.009677
20580 -0.63467757 9.97420959 -0.75697884 0.012788 -5.8e-05 0.003294
20600 -0.66461769 9.91657584 -0.67135716 0.023428 -0.011791 -0.001958
20620 -0.7819747200000001 9.835751250000001 -0.69754986 0.032011000000000005 -0.004352 -0.005111999999999999
20640 -0.7165616400000001 9.76628664 -0.7803266400000001 0.034207 0.011611 -0.002981
20660 -0.7343766 9.80985285 -0.7628157900000001 0.025772000000000003 0.038256 0.001199
20680 -0.67569318 9.84592422 -0.85637376 0.021414 0.014847999999999997 -0.002006
20700 -0.6816870899999999 9.896072940000002 -0.8747773200000001 0.023548 0.011657 -0.005192
20720 -0.6159699000000001 9.89308089 -0.81670212 0.025667 0.009515 -0.004106
20740 -0.5701670100000001 9.846522629999999 -0.8256782699999999 0.018209 0.008489 -0.007361
20760 -0.51552531 9.871822620000001 -0.83780343 0.011793 0.003193 -0.009536
20780 -0.49442400000000003 9.835299990000001 -0.82612953 0.013941 0.009564 -0.006324000000000001
20800 -0.52615935 9.848170710000002 -0.82373589 0.011951 0.045774 -0.002112
20820 -0.5953100400000001 9.85431177 -0.89558433 -0.00075 0.071372 0.000972
20840 -0.8942403600000001 9.780962400000002 -0.95695569 0.004406 0.035122 0.004259000000000001
20860 -0.59157243 9.796678020000002 -0.7837699500000002 0.01608 0.022293 0.005425
20880 -0.70773264 9.78290478 -0.8333202600000001 0.018242 0.022311 -0.000969
20900 -0.66072312 9.868379310000002 -0.86205375 0.022495 0.014857 -0.005203
20920 -0.65713266 9.87765957 -0.8394515100000001 0.022538 0.022322 -0.007349
20940 -0.6819813900000001 9.894424859999999 -0.8137100700000001 0.0152 0.053232 -0.005303
20960 -0.7095278700000001 9.838890450000001 -0.84439575 0.004579 0.069227 -5.7e-05
20980 -0.74215593 9.81583695 -0.83556675 0.017319 0.056395000000000015 0.001117
21000 -0.75712599 9.84891627 -0.8051753700000001 0.02161 0.06064600000000001 7.3e-05
21020 -0.79859286 9.879003540000001 -0.7532314200000001 0.018405 0.056408000000000014 -0.003148
21040 -0.80457696 9.85431177 -0.84573972 0.02273 0.06705499999999999 -0.005268
21060 -0.7168559400000001 9.83320065 -0.74530494 0.025988 0.077705 -0.007396
21080 -0.76461102 9.87421626 -0.79319736 0.019534 0.070253 -0.003158
21100 -0.77658903 9.902802600000001 -0.74005659 0.014214 0.077712 0.001068
21120 -0.78272028 9.83918475 -0.8286801300000001 0.019611 0.088358 -0.002113
21140 -0.7837699500000002 9.736650630000002 -0.78736041 0.021716 0.080898 -0.003157
21160 -0.82507986 9.80760636 -0.81251325 0.030189 0.063837 -0.00628
21180 -0.8232846300000001 9.85460607 -0.8008393500000001 0.019558 0.07770099999999999 -0.001031
21200 -0.70128747 9.803260530000001 -0.8478390600000001 0.013239 0.100077 0.003169
21220 -0.6632737200000001 9.78904584 -0.6918600600000001 0.015377000000000004 0.102196 0.004249
21240 -0.69590178 9.85266369 -0.85606965 0.016377000000000003 0.08834 0.005342
21260 -0.6875240400000001 9.83724237 -0.84633813 0.012095 0.08834199999999999 0.008517
21280 -0.6987466800000001 9.81344331 -0.8434932300000001 0.006789 0.096874 0.010606
21300 -0.7637085 9.77766624 -0.87762222 0.013191 0.091547 0.005316
21320 -0.77014386 9.84382488 -0.92806524 0.010028 0.097958 0.003149
21340 -0.7535355300000001 9.859246200000001 -0.9053158500000001 0.012172 0.097959 0.0010279999999999998
21360 -0.7514361900000001 9.86852646 -0.8041257 0.014257 0.085177 -0.001078
21380 -0.76131486 9.93288987 -0.98151012 0.0142 0.07345499999999999 5e-06
21400 -0.77733459 9.89756406 -0.94932351 0.008865999999999999 0.07665599999999999 0.003168
21420 -0.86565402 9.83724237 -0.8598072600000001 0.008832 0.072383 0.006378
21440 -0.8803199700000001 9.81074556 -0.93150855 0.010951 0.07024 0.007464
21460 -0.8476919100000001 9.79443153 -1.00157157 0.014171 0.07449 0.007481
21480 -0.78407406 9.751326390000001 -0.89873334 0.01309 0.068115 0.004277
21500 -0.74514798 9.80131815 -0.94199544 0.019448 0.056383 0.0022
21520 -0.63826803 9.795334050000001 -0.80966835 0.017309 0.054265 0.00112
21540 -0.7231441500000001 9.85266369 -0.8270320499999999 0.015137 0.044689 4.8e-05
21560 -0.7459033500000001 9.88858791 -0.9623511900000001 0.012989 0.042562 0.001104
21580 -0.7234482600000001 9.807155100000001 -1.01549196 0.011937 0.047883 0.0032270000000000003
21600 -0.65459187 9.76659075 -0.86295627 0.014099 0.053206 0.002167
21620 -0.70338681 9.8213796 -0.86250501 0.014103999999999997 0.052149 3.2e-05
21640 -0.71356959 9.87151851 -0.93031173 0.01408 0.04364 -0.0031620000000000003
21660 -0.70728138 9.879758910000001 -0.9443890800000001 0.015104 0.034049 -0.003143
21680 -0.69410655 9.82841337 -0.94513464 0.012961000000000002 0.029804 -0.005289
21700 -0.73885977 9.849367529999999 -0.93210696 0.009789 0.036207 -0.005319
21720 -0.72569475 9.80026848 -0.9833053500000001 0.01197 0.045791000000000005 -0.006384
21740 -0.6515998200000002 9.752523210000001 -0.9336078900000001 0.013013 0.042583 -0.004237
21760 -0.6375224700000001 9.834397469999999 -0.8834591700000001 0.014075 0.040453 -0.005295
21780 -0.6730052400000001 9.84637548 -0.9487251000000001 0.010884 0.045778 -0.002119
21800 -0.6619199400000001 9.82751085 -0.96758973 0.008751 0.048968 0.001067
21820 -0.6441147900000002 9.84876912 -0.9629496000000001 0.008789 0.059612 0.00319
21840 -0.62390619 9.85400766 -0.9518741100000001 0.01098 0.071327 0.002122
21860 -0.6932040300000001 9.83963601 -0.93555027 0.015281 0.075586 -0.001058
21880 -0.7125199200000001 9.77766624 -0.95216841 0.017458 0.084105 -0.002122
21900 -0.6730052400000001 9.807155100000001 -0.98076456 0.016454 0.095835 -0.004281
21920 -0.68093172 9.79084107 -1.0238697 0.014358 0.10648599999999997 -0.002173
21940 -0.6987466800000001 9.799522920000001 -1.01578626 0.010057 0.100106 -0.001126
21960 -0.65459187 9.84831786 -0.99872667 -0.000655 0.092677 0.000945
21980 -0.65144286 9.834995880000001 -1.00036494 0.005679 0.07668 -5.9e-05
22000 -0.71072469 9.873166590000002 -0.9918400500000001 0.011975 0.060649 0.007483
22020 -0.71401104 9.81254079 -1.01578626 0.014094999999999996 0.06169 0.01177
22040 -0.7249393800000001 9.84577707 -1.0210248000000002 0.007689 0.06383 0.014927
22060 -0.74829699 9.864484740000002 -1.03030506 0.001244 0.045777 0.006359
22080 -0.72943236 9.861041430000002 -1.0398894300000001 0.002287 0.029837 -0.004295
22100 -0.74949381 9.86194395 -1.03015791 -0.0030280000000000003 0.013958000000000002 -0.024608
22120 -0.7328756700000001 9.80521272 -1.00980216 0.0023350000000000003 -0.009378 -0.054451
22140 -0.73258137 9.78634809 -0.97821396 0.017366999999999997 -0.013589 -0.079978
22160 -0.7487384400000001 9.76584519 -0.9954305100000002 0.028093 -0.02949 -0.108725
22180 -0.7517402999999999 9.77677353 -1.0118916900000001 0.0398 -0.061386 -0.134239
22200 -0.7463448 9.821821049999999 -1.01683593 0.043837 -0.123144 -0.144814
22220 -0.7620604200000001 9.84218661 -1.0057604400000002 0.050965 -0.19456 -0.1404
22240 -0.7286868000000001 9.838890450000001 -1.0145894400000002 0.059361 -0.220177 -0.134967
22260 -0.7367702399999999 9.848170710000002 -0.9979713 0.053964 -0.220214 -0.121118
22280 -0.7512890400000001 9.88469334 -1.03389552 0.064441 -0.253313 -0.11138900000000003
22300 -0.77613777 9.85955031 -1.02521367 0.081223 -0.29925100000000004 -0.093053
22320 -0.72673461 9.78305193 -1.070271 0.098144 -0.332334 -0.092892
22340 -0.6800390100000001 9.78919299 -1.04228307 0.109698 -0.354818 -0.074623
22360 -0.64335942 9.73500255 -1.06024518 0.11474 -0.407086 -0.061702
22380 -0.5655268800000002 9.75640797 -0.99976653 0.117705 -0.441258 -0.043478
22400 -0.58019283 9.79517709 -1.0500624 0.121819 -0.456263 -0.024202
22420 -0.55849311 9.800121330000001 -1.1461709699999998 0.118547 -0.462682 -0.014602
22440 -0.5695686 9.78156081 -1.14017706 0.110046 -0.458378 -0.017872
22460 -0.53393868 9.74593089 -1.1141315100000002 0.11426 -0.480721 -0.028496
22480 -0.56596833 9.80790066 -1.1103939 0.126952 -0.49784 -0.020908000000000003
22500 -0.54666225 9.77886306 -1.1588945400000001 0.1228 -0.463771 -0.012435
22520 -0.50654916 9.839037600000001 -1.1141315100000002 0.120719 -0.443557 -0.003929
22540 -0.51911577 9.915084720000001 -1.1632305600000001 0.13564500000000002 -0.443618 -0.001689
22560 -0.46702467 9.88199559 -1.19840922 0.140047 -0.415928 -0.00383
22580 -0.40041477000000003 9.876315600000002 -1.0972190700000002 0.142459 -0.356272 -0.006026
22600 -0.40744854 9.86912487 -1.0578515400000001 0.14382799999999998 -0.271127 0.012034
22620 -0.37871505 9.79817895 -1.12326462 0.125902 -0.235863 0.000113
22640 -0.40925358 9.94381821 -1.0816506000000001 0.121841 -0.207018 -0.017043
22660 -0.51582942 9.879003540000001 -1.06039233 0.13580599999999998 -0.185761 -0.016973
22680 -0.4451778 9.80985285 -1.00171872 0.142427 -0.12086600000000003 -0.000987
22700 -0.5063922000000001 9.7582032 -1.01922957 0.142557 -0.096348 -0.00529
22720 -0.51253326 9.689650920000002 -1.01473659 0.162985 -0.064448 -0.008393000000000001
22740 -0.5159765700000001 9.73066653 -1.0585971 0.163196 -0.026064 -0.016986
22760 -0.52406001 9.80461431 -1.00800693 0.167603 0.002691 -0.019129
22780 -0.5551969500000001 9.899064990000001 -1.05799869 0.179425 0.022886 -0.018004
22800 -0.54067815 9.881848440000002 -1.04108625 0.180448 0.015416999999999997 -0.015851
22820 -0.6162642 9.863739180000001 -0.95516046 0.166522 0.016475 -0.002063
22840 -0.8903457900000001 9.82542132 -0.8704413 0.152595 0.030266 0.024528
22860 -1.15364619 9.771230880000001 -0.9354031200000001 0.148256 0.039766 0.050123
22880 -1.2234051000000001 9.799071660000001 -1.02312414 0.123794 0.072811 0.065933
22900 -1.26920799 9.80071974 -1.0585971 0.136673 0.112091 0.088405
22920 -1.3642668900000001 9.803417490000001 -0.9397489500000001 0.15593900000000002 0.161947 0.124795
22940 -1.4917968900000003 9.7692885 -0.95381649 0.14316600000000002 0.205518 0.16203800000000002
22960 -1.59508638 9.80670384 -0.9650391300000001 0.126058 0.234191 0.19927
22980 -1.76348484 9.8996634 -1.0044066600000001 0.13656300000000002 0.228704 0.230329
23000 -1.8045004500000001 9.76464837 -0.99258561 0.153667 0.263687 0.258177
23020 -1.81722402 9.86194395 -0.9096616800000001 0.136649 0.285014 0.267645
23040 -1.93562091 9.94472073 -0.8577177300000002 0.117364 0.26060500000000003 0.26113200000000003
23060 -2.08545885 9.72213183 -1.00665315 0.102261 0.206397 0.244004
23080 -1.8820386900000001 9.79772769 -1.0656308700000001 0.07124 0.167176 0.222474
23100 -1.7305526699999998 9.83245509 -0.9425938500000001 0.025236 0.114171 0.197651
23120 -1.84207275 9.765246780000002 -1.00485792 -0.061276 0.069825 0.173603
23140 -1.7958186 9.81059841 -1.06413975 -0.147673 0.057412 0.155924
23160 -1.7552542500000001 9.849965939999999 -1.08524106 -0.196768 0.021493 0.12358
23180 -1.6862409000000003 9.74099646 -1.20049875 -0.207292 0.045 0.114931
23200 -1.63355139 9.66121173 -1.2458601900000001 -0.201227 -0.066726 0.07772799999999999
23220 -1.6108020000000003 9.668392650000001 -1.24660575 -0.209613 -0.025185 0.086162
23240 -1.5658918200000003 9.66076047 -1.3058875799999998 -0.204226 -0.008181 0.091519
23260 -1.4904529199999998 9.65073465 -1.40617521 -0.174426 -0.038057 0.07787899999999999
23280 -1.40737203 9.68186178 -1.4394114900000001 -0.13283299999999998 -0.07959400000000001 0.039767
23300 -1.4910513300000003 9.88753824 -1.4147099099999998 -0.095286 -0.062566 0.011165
23320 -1.63325709 9.875265930000001 -1.55466918 -0.048196 -0.053049 -0.012019
23340 -1.4865583500000001 9.61885215 -1.68654501 -0.032121 -0.056224 -0.031131
23360 -1.3308834600000001 9.3471642 -1.6024144500000002 -0.030045 -0.08492899999999999 -0.047103
23380 -1.2094847100000001 9.24463008 -1.62606636 -0.022625 -0.106218 -0.057705999999999986
23400 -1.17176526 9.386080470000001 -1.82964348 -0.018304 -0.094515 -0.057691
23420 -0.9904862700000001 9.45209196 -2.0646518400000002 -0.026758 -0.063644 -0.044971
23440 -0.8587674 9.568252170000001 -2.07782667 -0.042694 -0.031698000000000004 -0.028031
23460 -0.76715181 9.627828300000001 -2.11914639 -0.057534 0.00027 -0.017494
23480 -0.63677691 9.65327544 -2.1874043700000003 -0.058529 0.02474 -0.008986
23500 -0.6939594 9.836496810000002 -2.1194406900000002 -0.051056 0.011986 -0.022805
23520 -0.91938339 9.755966520000001 -2.23335441 -0.059417999999999985 0.039756 -0.033581
23540 -0.93195981 9.88079877 -2.33035569 -0.071952 0.101577 -0.031611
23560 -0.83631231 9.78874173 -2.31328629 -0.08894500000000001 0.121864 -0.028551
23580 -0.6780868200000001 9.64294551 -2.29128246 -0.083726 0.082486 -0.042351
23600 -0.7201521000000001 9.561365550000001 -2.14383816 -0.076172 0.104818 -0.039122
23620 -0.7018858800000001 9.481433670000001 -2.06061012 -0.088763 0.163405 -0.027535000000000004
23640 -0.7011403200000002 9.41392125 -2.20027509 -0.104723 0.171987 -0.028726
23660 -0.39188987999999997 9.34132725 -2.0796219000000002 -0.06845 0.172922 -0.027405
23680 -0.46178613 9.26947881 -2.05237953 -0.05816900000000001 0.108879 -0.004819
23700 -0.76386546 9.38249001 -2.07289224 -0.06680499999999999 0.08972100000000001 -0.00165
23720 -0.9503731800000002 9.39521358 -2.00268207 -0.036607 0.16735999999999998 0.003803
23740 -0.95890788 9.42484959 -1.88787564 -0.032027999999999994 0.232343 -0.000521
23760 -0.7804737900000001 9.56944899 -1.89326133 -0.036079 0.262258 -0.018748
23780 -0.75473235 9.75895857 -1.97050527 -0.064 0.221875 -0.018891
23800 -0.74664891 9.810304109999999 -2.10312666 -0.090237 0.064373 -0.035964
23820 -0.77972823 9.78485697 -2.0549301300000002 -0.107504 -0.002585 -0.0595
23840 -0.8390100600000001 9.77287896 -1.92005244 -0.146896 0.025212 -0.050197000000000006
23860 -0.83436012 9.72213183 -1.82889792 -0.188269 0.101958 -0.026015
23880 -0.83990277 9.70103052 -1.7172306900000003 -0.218122 0.150886 0.018579
23900 -0.86819481 9.707917140000001 -1.71618102 -0.226829 0.12954200000000002 0.035637
23920 -0.8761311 9.680969070000002 -1.7606399400000001 -0.219424 0.122033 0.042108
23940 -1.06309008 9.67408245 -1.76647689 -0.220591 0.114521 0.057065
23960 -1.04527512 9.59115852 -1.6913322899999998 -0.228155 0.104913 0.068775
23980 -0.9324110700000001 9.52708941 -1.6573504500000003 -0.238819 0.112381 0.0751
24000 -0.9717786 9.57872925 -1.5892494300000002 -0.250598 0.103896 0.076097
24020 -1.06189326 9.6448977 -1.68324885 -0.254966 0.086845 0.081429
24040 -0.98854389 9.62244261 -1.6935787800000002 -0.298755 0.073162 0.077936
24060 -0.99452799 9.57977892 -1.52772111 -0.34792199999999995 0.054155 0.078685
24080 -0.98854389 9.80820477 -1.70435997 -0.393854 0.048959 0.085849
24100 -0.8027817300000001 9.920166300000002 -2.0660056200000003 -0.435587 0.03414 0.098395
24120 -0.69845238 9.922716900000001 -1.9869664500000002 -0.434596 0.019214 0.100557
24140 -0.7562234700000001 9.91912644 -1.83922785 -0.413173 0.033009 0.095348
24160 -0.71221581 9.90445068 -1.9333842300000001 -0.402504 0.022361 0.084754
24180 -0.8422964100000001 9.82466595 -1.95448554 -0.391764 0.030876 0.077341
24200 -0.9381008700000001 9.636510150000001 -1.63998675 -0.376617 0.083001 0.082721
24220 -1.02626334 9.53427033 -1.60286571 -0.366905 0.111712 0.087025
24240 -1.3817777400000002 9.693241380000002 -2.07722826 -0.333717 0.127614 0.077622
24260 -1.30184586 9.700275150000001 -1.7185746599999998 -0.30383000000000004 0.111607 0.058623
24280 -0.92702538 9.628132410000001 -1.0181799 -0.284521 0.142403 0.066196
24300 -0.7776288900000001 9.77721498 -0.93779676 -0.284617 0.12746400000000002 0.072624
24320 -0.6483036600000001 9.756260820000001 -1.4156026200000003 -0.276063 0.150793 0.091882
24340 -0.8285231700000001 9.85939335 -1.83353805 -0.279374 0.130547 0.096158
24360 -0.84559257 9.920166300000002 -1.8781441200000002 -0.254716 0.151788 0.090962
24380 -0.9458802000000001 9.854753220000003 -1.58146029 -0.236637 0.134697 0.086837
24400 -0.9497747700000001 9.791292330000001 -1.5223354199999999 -0.221663 0.130435 0.074128
24420 -0.9123496200000001 9.92181438 -1.49464179 -0.204598 0.112334 0.057179
24440 -0.86116104 9.92720988 -1.31201883 -0.183122 0.148457 0.062624
24460 -0.8514295199999999 9.767934720000001 -1.15275348 -0.167157 0.138818 0.06168
24480 -0.9548661600000001 9.731559240000001 -1.1681748 -0.140557 0.13653900000000002 0.07575499999999999
24500 -0.89139546 9.739946790000001 -0.9231308100000001 -0.11291500000000003 0.111954 0.072775
24520 -0.68303106 9.77302611 -0.66282246 -0.072273 0.159647 0.098635
24540 -0.60009732 9.89277678 -0.69276258 -0.045645 0.161637 0.110569
24560 -0.6381208800000001 9.90550035 -0.5610339 -0.027604000000000004 0.136025 0.106455
24580 -0.8764254 9.98378415 -0.54936 -0.007256999999999999 0.14663199999999998 0.100174
24600 -1.01473659 9.787996170000001 -0.6390234 0.005612 0.133915 0.072507
24620 -1.04168466 9.807007950000001 -0.48902850000000003 0.001316 0.111623 0.056482
24640 -0.8834591700000001 9.926454510000001 -0.28291059 -0.011501 0.087252 0.035059
24660 -0.6947049599999999 9.83006145 -0.18636057 -0.005975 0.145759 0.051046
24680 -0.83241774 9.951460200000001 -0.14519781 -0.008228000000000001 0.122318 0.054265
24700 -0.8406483299999999 9.96193728 -0.01542132 0.005833 0.155331 0.044707
24720 -0.58394025 10.023455790000002 0.19609209 0.012589 0.220345 0.030784
24740 -0.57121668 10.014175530000001 0.265851 0.02566 0.262979 0.013729
24760 -0.35281665 9.9978615 0.49562082 0.03219 0.28217 0.004136
24780 -0.3376994400000001 9.902204189999999 0.6286934700000001 0.006542 0.251452 -0.017368
24800 -0.40700709 9.80954874 0.63393201 0.008791 0.272767 -0.021653
24820 -0.38185425 9.98094906 0.6939594 0.009729 0.247184 -0.018409
24840 -0.35790804000000004 9.92570895 0.86130819 0.040332 0.150226 -0.040503
24860 -0.47032083 9.780658290000002 0.8809183800000001 0.04868 0.08637 -0.062796
24880 -0.13441662000000001 9.89308089 1.0835929800000001 0.0519 0.066217 -0.08731699999999999
24900 -0.19175607 9.85176117 1.04857128 0.059406 0.056676 -0.105412
24920 -0.053886329999999996 9.8068608 1.05306426 0.070214 0.07586 -0.117111
24940 0.00958437 9.812246490000001 1.06967259 0.088322 0.07471 -0.111642
24960 0.07065161999999998 9.978104160000001 0.9592021800000001 0.08833099999999999 0.090634 -0.097776
24980 0.14055768000000002 9.86239521 0.8652027600000002 0.102311 0.128879 -0.08384
25000 0.21720321 9.81389457 0.8672922900000001 0.14181300000000002 0.143621 -0.075037
25020 0.18786150000000001 9.81194238 0.83915721 0.167485 0.15950599999999998 -0.07381
25040 0.09939492000000001 9.58755825 0.66701133 0.183512 0.17008199999999998 -0.068371
25060 0.10807677000000002 9.850417199999999 0.6785380799999999 0.191975 0.16256099999999998 -0.059756
25080 0.27707364 10.068209009999999 0.70773264 0.197252 0.164613 -0.044767
25100 0.12274272000000001 9.86044302 0.4685256 0.20249 0.14435 -0.043636
25120 0.4716648 10.01537235 0.56043549 0.212078 0.128389 -0.05636699999999999
25140 0.2228832 10.03467843 0.54336609 0.215365 0.142247 -0.061703
25160 -0.0009025200000000001 9.959543640000001 0.42272271 0.22489 0.12517 -0.061615
25180 -0.1038879 10.03184334 0.41509053000000007 0.224899 0.124117 -0.064818
25200 -0.07844076 9.867633750000001 0.36194976 0.215388 0.145452 -0.063843
25220 0.22498254 9.91432935 0.5688132300000002 0.209241 0.211482 -0.054357
25240 0.05837931 10.181082870000001 0.45879408 0.202922 0.240224 -0.043756
25260 1.09227483 10.027801620000002 0.6535422000000001 0.19765 0.261518 -0.036342
25280 0.8062250400000001 10.04036823 0.66536325 0.202912 0.239155 -0.042686
25300 0.48259314000000003 10.043517240000002 0.57361032 0.202903 0.230658 -0.049085
25320 0.10583028000000001 9.9457704 0.56028834 0.19554 0.25412 -0.049166
25340 -0.060920100000000005 9.910738890000001 0.5300441100000001 0.190302 0.263773 -0.060966
25360 -0.27348318 9.889333470000002 0.47017368 0.183953 0.252171 -0.084496
25380 -0.31090833 9.81254079 0.52211763 0.183828 0.212803 -0.096197
25400 -0.30147111000000004 9.90040896 0.5551969500000001 0.178619 0.221421 -0.115472
25420 -0.32377905 9.99351567 0.6730052400000001 0.147713 0.235352 -0.109297
25440 -0.329616 9.914486310000001 0.5468094 0.124132 0.224726 -0.095561
25460 -0.37855809 9.99306441 0.55070397 0.114463 0.231065 -0.074272
25480 -0.47032083 10.071358020000002 0.61446897 0.119692 0.232014 -0.049668
25500 -0.5198711400000001 9.97825131 0.50549949 0.12816 0.221315 -0.045322
25520 -0.50444982 10.03048956 0.59066991 0.122687 0.196807 -0.038919
25540 -0.5768966700000001 10.01283156 0.57749508 0.119424 0.18403 -0.037858
25560 -0.7282355400000001 9.89831943 0.52929855 0.113993 0.15743900000000002 -0.043203
25580 -0.7722432 9.77273181 0.5480062200000001 0.109668 0.140426 -0.047484
25600 -0.70024761 9.73829871 0.32856633 0.101196 0.156427 -0.045427
25620 -0.7253906400000001 9.879307650000001 0.16046217000000002 0.093723 0.154326 -0.046545
25640 -0.7960422600000001 9.82257642 0.08502327 0.07328 0.114987 -0.047705
25660 -0.7981416 9.82886463 -0.08502327 0.061372 0.077739 -0.046673
25680 -0.66072312 9.83814489 -0.13651596 0.061372 0.07561699999999999 -0.048806
25700 -0.58962024 9.77856876 -0.18786150000000001 0.050679 0.075633 -0.04354
25720 -0.71101899 9.86478885 -0.39203703 0.04856 0.084142 -0.038225
25740 -0.77209605 9.94172868 -0.49352148 0.043187 0.082004 -0.03185
25760 -0.66820815 9.91403505 -0.37900935 0.040943 0.059632 -0.029701
25780 -0.74844414 9.98348985 -0.42571475999999997 0.034514 0.056446 -0.026537
25800 -0.8033801400000001 9.90550035 -0.44248005 0.024869 0.051136 -0.022324
25820 -0.78706611 9.87720831 -0.58887468 0.023739 0.039414 -0.020181
25840 -0.8529304500000001 9.833053500000002 -0.7445495700000001 0.016204 0.030892000000000006 -0.013813
25860 -0.76715181 9.683961120000001 -0.64246671 0.008688 0.030876 -0.003184
25880 -0.6873670799999999 9.74877579 -0.66057597 0.001168 0.016000999999999998 -0.006422
25900 -0.5929164 9.78485697 -0.81056106 -0.005243 0.013893 -0.006464
25920 -0.5167221300000001 9.784248750000001 -0.9532180800000001 -0.007367 0.018153 -0.004348
25940 -0.5096883600000001 9.74683341 -0.9577110600000001 -0.007319 0.0235 -0.009695
25960 -0.4176313200000001 9.63426366 -0.9699833700000001 -0.006195 0.026731 -0.019306
25980 -0.47570652 9.68156748 -0.9404945100000001 -0.002932 0.039507 -0.020367
26000 -0.4980144600000001 9.711949050000001 -1.01982798 -0.012486 0.049132 -0.021515
26020 -0.55085112 9.740398050000001 -1.10963853 -0.019944 0.053411 -0.019436
26040 -0.60578712 9.849671640000002 -1.13703786 -0.026408 0.041707 -0.017329
26060 -0.6020495100000001 9.86089428 -1.05426108 -0.025494 0.008676 -0.016212999999999998
26080 -0.59695812 9.75671208 -1.02237858 -0.028777 -0.000935 -0.007677
26100 -0.69754986 9.751326390000001 -1.1319464700000001 -0.033082 0.008595 0.01044
26120 -0.7665534 9.80581113 -1.2234051000000001 -0.03635 0.008546999999999999 0.025372
26140 -0.8464852800000001 9.865985669999999 -1.17341334 -0.031078 0.009534 0.040363
26160 -0.86834196 9.8242245 -1.21232961 -0.030069 0.000991 0.044654
26180 -0.8440916400000001 9.743537250000001 -1.21023027 -0.034317 0.011633 0.05102
26200 -0.8542744200000001 9.680664960000001 -1.12460859 -0.029007 0.006288 0.051064
26220 -0.91609704 9.68546205 -1.23493185 -0.024768 -0.0043630000000000006 0.046834
26240 -0.82672794 9.7897914 -1.2829812299999999 -0.03227 -0.012855000000000002 0.045725
26260 -0.7851139200000001 9.85819653 -1.1891289600000001 -0.03647 -0.00217 0.041409
26280 -0.7749409500000002 9.79428438 -1.15529427 -0.036369 0.01914 0.040314
26300 -0.7343766 9.76404996 -1.14766209 -0.047038 0.017055 0.038106
26320 -0.76790718 9.747578970000001 -1.12565826 -0.061022 -0.012707 0.033773000000000004
26340 -0.9262700100000001 9.699833700000001 -1.0553009400000002 -0.06317 -0.025444 0.02416
26360 -1.0071044100000002 9.74159487 -1.08299457 -0.080178 -0.023207 0.012288
26380 -0.99333117 9.82901178 -1.1192229 -0.097161 -0.010339 0.005744
26400 -0.9949792500000001 9.89427771 -1.1274534900000002 -0.096066 -0.010317 -0.0006580000000000001
26420 -1.08719325 9.88858791 -1.06802451 -0.09608 -0.017757 -0.004921
26440 -1.0901853000000001 9.79353882 -1.05754743 -0.095061 -0.023108 0.000434
26460 -0.98210853 9.70746588 -1.00949805 -0.094009 -0.018881 0.007913
26480 -0.93001743 9.68680602 -0.9874942200000001 -0.081326 -0.030703 0.022972
26500 -0.8446900500000001 9.70252164 -0.8940932100000001 -0.06846100000000001 -0.009472 0.030512
26520 -0.8780734800000001 9.86283666 -1.04916969 -0.061955 0.024551 0.041196
26540 -0.81670212 9.735453810000001 -1.02836268 -0.056678 0.017054 0.046584
26560 -0.8123562900000001 9.699676740000001 -0.88795215 -0.051411 -0.001061 0.043439
26580 -0.73646613 9.774968490000001 -1.01009646 -0.053588 -0.010641 0.043436
26600 -0.7212017700000001 9.86867361 -0.9993250800000001 -0.053636 -0.013867 0.050918
26620 -0.88001586 9.83320065 -0.9533652300000001 -0.046167 -0.009649 0.055237
26640 -0.8749342800000001 9.72528084 -0.9285165000000001 -0.04401 -0.005391 0.054179
26660 -0.8402068800000001 9.817485029999999 -0.92447478 -0.045134 -0.023475 0.048853
26680 -0.88196805 9.87361785 -0.9306158400000001 -0.028108 -0.037366 0.044717
26700 -0.88481295 9.863739180000001 -0.9532180800000001 -0.022711 -0.026719 0.041536
26720 -0.8824193100000001 9.799071660000001 -0.8273263500000001 -0.033269 -0.005364 0.03823
26740 -0.83645946 9.78574968 -0.8207438400000001 -0.036451 -0.005336 0.033935
26760 -0.7896069 9.79053696 -0.7845155100000001 -0.033207 -0.0021260000000000003 0.027545
26780 -0.7813763100000001 9.828109260000002 -0.84559257 -0.03215 -0.005321 0.026488
26800 -0.7863107400000001 9.82122264 -0.87388461 -0.033231000000000004 -0.009574 0.025417
26820 -0.8122091400000001 9.72722322 -0.81730053 -0.038589 -0.01276 0.027521
26840 -0.71955369 9.735306660000001 -0.8508311099999999 -0.045139 -0.048944 0.024317
26860 -0.6511485600000001 9.80236782 -0.8352626400000002 -0.041953 -0.042602 0.033945
26880 -0.6848262900000002 9.88289811 -0.86355468 -0.036561 -0.029837 0.033966
26900 -0.62584857 9.87122421 -0.9404945100000001 -0.037604000000000005 -0.023446 0.035019
26920 -0.61132977 9.869880240000002 -0.92403333 -0.034418000000000004 -0.030897000000000008 0.030778
26940 -0.6081807600000001 9.84083283 -0.8583161400000001 -0.034437 -0.036219 0.029716000000000006
26960 -0.6333336 9.889333470000002 -0.92686842 -0.029198 -0.062848 0.024446
26980 -0.6277909500000002 9.85011309 -0.7807779 -0.032126 0.012737 0.039283
27000 -0.6460571700000001 9.820182780000001 -0.8033801400000001 -0.03437 -0.018122 0.032898000000000004
27020 -0.63243108 9.84532581 -0.7652094300000001 -0.034355000000000004 -0.01917 0.028627
27040 -0.6303415499999999 9.849073230000002 -0.68662152 -0.033212 -8e-06 0.030746
27060 -0.56477151 9.833053500000002 -0.61207533 -0.035230000000000004 0.024505 0.029633
27080 -0.55010556 9.890677440000001 -0.51059088 -0.026705 0.014916999999999996 0.022227
27100 -0.66970908 9.95729715 -0.5382845100000001 -0.025466 0.044775 0.013652
27120 -0.7909508700000001 9.917625509999999 -0.57989853 -0.033804 0.07256599999999999 -0.002466
27140 -0.79859286 9.92511054 -0.67748841 -0.022987 0.080088 -0.028037
27160 -0.79005816 9.873313740000002 -0.55144953 -0.017605000000000003 0.069502 -0.04935
27180 -0.8677435499999999 9.871675470000001 -0.38709279 -0.01771 0.046066 -0.049321
27200 -0.8020361700000002 9.922864050000001 -0.43080615000000005 -0.022102 0.02475 -0.042915
27220 -0.8072747100000001 9.889333470000002 -0.49831857 -0.030728 0.01515 -0.032281
27240 -0.75428109 9.90580446 -0.51298452 -0.03834 0.000194 -0.015223
27260 -0.7319731500000001 9.82197801 -0.40236696 -0.035173 -0.000908 -0.008790000000000001
27280 -0.68961357 9.83470158 -0.36583452 -0.023447 -0.004141 -0.009772
27300 -0.63512883 9.922716900000001 -0.37916631 -0.024452 0.007589 -0.011931
27320 -0.6027950700000001 10.007593020000002 -0.44742429 -0.031963 -0.004094 -0.014105
27340 -0.6837766200000001 9.86149269 -0.42197715 -0.0277 -0.007295999999999999 -0.016207
27360 -0.70922376 9.90460764 -0.46792719 -0.021313 -0.008392 -0.014025
27380 -0.7770304800000001 9.870920100000001 -0.41957370000000005 -0.02027 -0.007356 -0.00761
27400 -0.75607632 9.91328949 -0.45176031000000005 -0.017046000000000002 8.1e-05 -0.00546
27420 -0.7530842700000001 9.871822620000001 -0.41718006 -0.020409 -0.032944 -0.0022370000000000003
27440 -0.60250077 9.986334750000001 -0.3558087 -0.015133 -0.036197 0.007418000000000002
27460 -0.7568218800000002 9.8854389 -0.36987624 -0.006559000000000001 -0.019216 0.016002000000000002
27480 -0.8009865 9.832307940000002 -0.40461345 0.003057 -0.017115000000000002 0.014998
27500 -0.7722432 9.849073230000002 -0.35970327 0.014802 -0.016087 0.014011
27520 -0.67464351 9.837095220000002 -0.3614985 0.029733 -0.015082 0.01625
27540 -0.68662152 9.858049379999999 -0.35685837000000004 0.034025 -0.005527000000000001 0.020541
27560 -0.74978811 9.976004820000002 -0.46897686000000005 0.032948000000000005 -0.003409 0.024804
27580 -0.73407249 9.892178370000002 -0.47106639 0.037225 0.004011 0.030165
27600 -0.7370645400000001 9.86972328 -0.39502908 0.040435000000000006 0.010375 0.034452
27620 -0.74650176 9.87047865 -0.4122456300000001 0.045779 0.01567 0.037687
27640 -0.60788646 9.86299362 -0.3239262 0.052099 -0.007767 0.032421
27660 -0.41358960000000006 9.86283666 -0.29414304 0.05663500000000001 0.060361 0.040911
27680 -0.36628578000000006 9.95550192 -0.3097017 0.053525 0.073185 0.033395
27700 -0.33260805000000004 9.938285370000001 -0.29997999 0.04612 0.076449 0.022657
27720 -0.35700552 9.995762160000002 -0.36568737 0.041819 0.059458 0.013035
27740 -0.48483963 9.919872000000002 -0.32527017 0.027954000000000003 0.053145000000000005 0.005468
27760 -0.5553441 9.835594290000001 -0.30625839 0.0184 0.058526 5.400000000000001e-05
27780 -0.5653699200000001 9.78889869 -0.25222491 0.020577 0.06492300000000001 -0.003144
27800 -0.58498011 9.83858634 -0.2920437 0.028132 0.079828 -0.007383
27820 -0.567018 9.867633750000001 -0.36030168 0.027122000000000004 0.094737 -0.005273
27840 -0.47945394 9.83006145 -0.24788889 0.033662 0.12879000000000002 -0.002066
27860 -0.48409407000000004 9.71449965 -0.20372427 0.030553 0.15116300000000002 2e-05
27880 -0.43858548 9.77826465 -0.19594493999999998 0.019875 0.153314 0.004215
27900 -0.41373675 9.96897105 -0.31883481 0.002829 0.172493 0.017958000000000002
27920 -0.37541889 10.01147778 -0.2980278 -0.014418 0.143748 0.028557
27940 -0.45146601000000003 9.926307360000001 -0.29878317000000004 -0.009074 0.158592 0.041394
27960 -0.5644772100000001 9.846071370000002 -0.36030168 0.005087 0.232012 0.049945
27980 -0.6562399500000001 9.82332198 -0.38020617 0.023387 0.268168 0.050026
28000 -0.63632565 9.85056435 -0.40595742000000007 0.045987 0.28736300000000004 0.02559
28020 -0.6224052600000001 9.86223825 -0.42032907 0.030783 0.194869 -0.007512
28040 -0.58453866 9.88574301 -0.34997175 0.037227 0.185336 -0.026683
28060 -0.6255444600000001 9.932742720000002 -0.27841761000000004 0.019316 0.241833 -0.020471
28080 -0.67524192 9.898466580000001 -0.28530423000000005 -0.012805 0.228049 -0.008927
28100 -0.69515622 9.872715330000002 -0.31285071000000003 0.006370000000000001 0.220529 -0.009852
28120 -1.00770282 9.886939830000001 -0.39188987999999997 0.029869 0.216229 -0.020365
28140 -0.66566736 9.89891784 -0.18875421000000003 0.022373 0.198192 -0.032144
28160 -0.84124674 9.894572010000001 -0.28410741 0.021315 0.205632 -0.02682
28180 -0.80307603 9.906098759999999 -0.329616 0.024569 0.224765 -0.019344
28200 -0.75398679 9.9315459 -0.40610457000000005 0.021248 0.207694 -0.009732
28220 -0.72913806 9.858353490000002 -0.32242527000000004 0.019095 0.215112 0.001994
28240 -0.66820815 9.85086846 -0.23411565 0.022214 0.20654 0.011641
28260 -0.67030749 9.92197134 -0.32557428000000005 0.017818 0.178854 0.012714
28280 -0.7446967200000001 9.96762708 -0.44248005 0.024228 0.184145 0.015957
28300 -0.7279314299999999 9.91568313 -0.47691315 0.035988 0.190491 0.017099
28320 -0.74215593 9.899967509999998 -0.46178613 0.028467000000000006 0.176677 0.014928
28340 -0.73885977 9.78679935 -0.37976472000000006 0.031701 0.176696 0.007473
28360 -0.7352693100000001 9.8068608 -0.49966254000000004 0.035973000000000005 0.170319 3.3e-05
28380 -0.56282913 9.816739470000002 -0.5496543 0.044494 0.164972 -0.002037
28400 -0.52271604 9.84891627 -0.5144756400000001 0.034887 0.158635 -0.007437
28420 -0.50100651 9.91867518 -0.59066991 0.025295 0.154433 -0.013908000000000002
28440 -0.43783992 9.87735546 -0.49262877000000005 0.026381 0.15869 -0.013906
28460 -0.40521186000000003 9.780511140000002 -0.39742272 0.025343 0.157659 -0.021389
28480 -0.4601478600000001 9.71809011 -0.33605136 0.02319 0.145978 -0.028867
28500 -0.8319664800000002 9.71015382 -0.5448670200000001 0.034017 0.175789 -0.034171
28520 -1.0027683900000002 9.90340101 -1.0548594900000001 0.043772000000000005 0.206661 -0.037347000000000005
28540 -0.58109535 9.93109464 -0.30716091 0.044906 0.216266 -0.042692
28560 -0.44248005 9.93903093 -0.29129814000000004 0.037486 0.228006 -0.041691000000000006
28580 -0.4251163500000001 9.93558762 -0.6710530499999999 0.02899 0.23868000000000006 -0.039628
28600 -0.5260023900000002 9.88753824 -0.60384474 0.025837 0.25571 -0.033262
28620 -0.6423097500000001 9.924060870000002 -0.73885977 0.024847 0.279124 -0.02689
28640 -0.55085112 9.89636724 -0.7288339500000001 0.017465 0.307874 -0.017363999999999997
28660 -0.47256732 9.844276140000002 -0.63243108 0.017537 0.332341 -0.008849
28680 -0.42975648 9.796530870000002 -0.6448603500000001 0.013121 0.290844 -0.017373
28700 -0.4249692 9.799817220000001 -0.68662152 -0.000537 0.348374 -0.00686
28720 -0.37212273 9.82212516 -0.6203059200000002 -0.001484 0.388803 0.006969
28740 -0.44876826000000003 9.84831786 -0.7062317100000001 0.002697 0.378101 0.015558
28760 -0.49277592000000003 9.90490194 -0.7144623 0.003692 0.364241 0.017719
28780 -0.4837899600000001 9.899967509999998 -0.80562663 0.007978 0.369548 0.01881
28800 -0.50310585 9.9025083 -0.7274899800000001 0.007945 0.33981 -0.003585
28820 -0.5423262300000001 9.906098759999999 -0.6936552900000001 0.018992 0.44727 0.019856
28840 -0.57225654 9.93678444 -0.7006890600000001 0.040296 0.43019 0.010412
28860 -0.5986062000000002 9.94531914 -0.85382316 0.027608 0.439886 -0.005712
28880 -0.59322051 9.85190832 -0.62390619 0.023375 0.437809 -0.015353
28900 -0.60489441 9.839783160000001 -0.64515465 0.015844 0.426108 -0.013253999999999998
28920 -0.57600396 9.881848440000002 -0.74769858 0.019026 0.434568 -0.000424
28940 -0.5780934900000001 9.97241436 -0.7738912800000001 0.010064 0.31963 -0.020636
28960 -0.68183424 9.938736630000001 -0.604296 0.004936 0.395164 0.009142
28980 -0.7545852000000001 9.926611470000001 -0.71087184 -0.008048999999999999 0.3738260000000001 0.028307
29000 -0.71805276 9.97270866 -0.80173206 0.010987 0.33010900000000004 0.022086
29020 -0.769104 9.91208286 -0.68931927 0.014149 0.323698 0.024253
29040 -0.82763046 9.92047041 -0.7819747200000001 0.029081 0.326824 0.028626
29060 -0.8306225100000001 9.89667135 -0.71221581 0.02168 0.332215 0.018954
29080 -0.75742029 9.893522339999999 -0.7478457300000001 0.022732 0.316283 0.006163
29100 -0.722997 9.80191656 -0.6523453800000001 0.034372 0.291754 0.003071
29120 -0.69066324 9.737101890000002 -0.56687085 0.023353 0.180075 -0.031046
29140 -0.6087791700000001 9.740241090000001 -0.6117810300000001 0.007748 0.304622 0.005005
29160 -0.71072469 9.787849020000001 -0.6334807499999999 0.017048 0.24278200000000005 0.01049
29180 -0.9313614 9.86912487 -0.76775022 0.014722 0.193813 0.0041270000000000005
29200 -0.45385965 9.8242245 -0.5471135100000001 0.007229999999999999 0.187451 0.003015
29220 -0.6179122800000001 9.71659899 -0.6665600700000001 0.008149 0.156546 0.005197
29240 -0.6364728 9.83185668 -0.69336099 0.018717 0.140505 0.011701
29260 -0.6441147900000002 9.91807677 -0.7343766 0.017592 0.130908 0.01491
29280 -0.65055015 9.93678444 -0.72479223 0.023807 0.085097 0.010739
29300 -0.8584632900000001 9.97734879 -0.81670212 0.015161 0.050015 4.2e-05
29320 -0.57749508 10.045763730000001 -0.7253906400000001 0.012951 0.028734 -0.004219
29340 -0.76730877 9.894876120000001 -0.7816706099999999 0.008626 0.013844 -0.006367
29360 -0.7535355300000001 9.811500930000001 -0.72569475 -1.9e-05 -0.008505 -0.004262
29380 -0.70532919 9.78934014 -0.77044797 -0.0075689999999999985 -0.028710000000000006 -0.006425
29400 -0.58633389 9.78215922 -0.7888613400000001 -0.003378 -0.047892 -0.008508
29420 -0.42317397000000007 9.81733788 -0.7244979300000001 -0.005579 -0.063859 -0.009571
29440 -0.89574129 9.82930608 -0.88615692 -0.006751000000000001 -0.088352 -0.010616
29460 -0.17963091 9.890235990000003 -0.8138572199999999 -0.003646 -0.11179 -0.012701
29480 -0.32213097 9.849965939999999 -0.93150855 -0.008971 -0.106458 -0.00954
29500 -0.35475903000000003 9.860590170000002 -0.7668575100000001 -0.006828 -0.097969 -0.003127
29520 -0.35850645000000003 9.903852270000002 -0.8502327000000002 -0.007932999999999999 -0.106488 -0.003124
29540 -0.43948800000000005 9.88380063 -0.9090632700000001 -0.00689 -0.109696 -0.000976
29560 -0.5653699200000001 9.759851280000001 -0.91818657 -0.000532 -0.118244 0.000148
29580 -0.48858705 9.72377991 -0.93435345 -0.002661 -0.119294 -0.002002
29600 -0.36119439 9.748922940000002 -0.9424368900000001 -0.0122 -0.099046 0.004315
29620 -0.7933543200000001 9.825715620000002 -1.05949962 -0.022927 -0.096937 0.019192
29640 0.055083150000000004 9.88753824 -0.7450008300000001 -0.017693 -0.103412 0.03526
29660 -0.27737775000000003 9.78560253 -0.9578582100000002 -0.021917 -0.072589 0.056556
29680 -0.30821058 9.69054363 -1.00635885 -0.021879 -0.055579 0.06508
29700 -0.24863445 9.73590507 -1.0011203100000001 -0.006876 -0.048145 0.057698
29720 -0.20223315000000003 9.85027005 -1.0666805400000001 0.010213 -0.053492 0.04821
29740 -0.1013373 9.89038314 -0.9982754100000001 0.019882 -0.044978 0.041857
